,attitude.roll,attitude.pitch,attitude.yaw,gravity.x,gravity.y,gravity.z,rotationRate.x,rotationRate.y,rotationRate.z,userAcceleration.x,userAcceleration.y,userAcceleration.z
0,0.469622,-1.105773,-0.183192,0.20294,0.893811,-0.399888,-2.191344,1.836105,-0.723019,-0.232847,-0.688916,0.381181
1,0.515396,-1.156214,-0.173921,0.198531,0.915285,-0.350474,-2.363008,1.90448,-1.155867,-0.057052,-0.607515,0.339946
2,0.557269,-1.211266,-0.162511,0.186069,0.936062,-0.298593,-2.559274,1.177604,-1.169257,0.08624,0.302249,-0.259253
3,0.601952,-1.255618,-0.113787,0.175522,0.950741,-0.255488,-2.081134,-1.058971,-0.112989,0.024963,0.770023,-0.537816
4,0.674214,-1.284314,0.008391,0.176399,0.959244,-0.220738,-2.415788,-2.580961,0.902503,0.011223,0.471664,-0.478298
5,0.789042,-1.309334,0.175902,0.183434,0.966013,-0.182102,-2.323046,-2.045872,0.742231,-0.274712,-0.026926,-0.468334
6,0.888567,-1.323441,0.307796,0.190021,0.969563,-0.154365,-1.249245,-0.965344,0.526157,-0.381076,-0.086629,-0.465173
7,0.951838,-1.321871,0.371508,0.200641,0.969178,-0.142924,-0.232958,0.864321,0.564026,-0.398807,-0.165116,0.046977
8,0.997962,-1.309422,0.361271,0.217141,0.966036,-0.140051,0.908643,3.891206,0.264747,0.055991,-0.037187,0.717413
9,1.008225,-1.297331,0.289135,0.228432,0.962841,-0.144035,1.155505,3.62122,-0.097447,-0.003914,0.164662,0.504051
10,1.03099,-1.304105,0.29055,0.226052,0.964648,-0.135443,-1.176092,-1.48612,-0.371039,0.617103,0.61128,-0.168299
11,0.932759,-1.300917,0.24686,0.214148,0.963803,-0.15879,1.032621,-2.368456,-0.34914,0.616693,0.589572,0.729103
12,0.92028,-1.302969,0.263966,0.210576,0.964348,-0.160252,-0.954839,-1.16164,0.342594,0.347927,0.668144,0.119465
13,0.979229,-1.305638,0.330554,0.217513,0.965051,-0.146132,-0.209684,0.617911,0.360474,-0.040771,0.122977,0.23329
14,1.016302,-1.297903,0.326629,0.22912,0.962995,-0.141896,0.243474,2.572667,0.240425,-0.140757,-0.075635,0.282994
15,1.059635,-1.291672,0.32546,0.240281,0.961297,-0.13477,0.114113,1.830503,0.269315,-0.168518,-0.117028,0.172596
16,1.083513,-1.28868,0.331724,0.24597,0.960469,-0.130341,-0.070265,0.303063,0.121501,-0.215636,-0.261051,-0.198089
17,1.087615,-1.288844,0.340765,0.246364,0.960514,-0.129258,-0.152581,-0.344853,-0.016044,-0.172969,-0.305012,-0.131866
18,1.087485,-1.291651,0.345092,0.243958,0.961291,-0.128036,-0.053948,-0.111457,-0.126749,-0.13263,-0.283801,-0.101411
19,1.081976,-1.292736,0.332787,0.242328,0.96159,-0.128888,0.246177,0.677916,-0.121391,-0.20119,-0.406506,0.069287
20,1.070776,-1.2921,0.298301,0.241406,0.961415,-0.131887,0.529619,1.17072,-0.262116,-0.181012,-0.345921,-0.352976
21,1.042781,-1.293113,0.250772,0.236777,0.961693,-0.138101,0.514643,0.783579,-0.403799,-0.071891,-0.276574,-0.238028
22,1.019268,-1.29322,0.20562,0.233377,0.961723,-0.143576,0.57734,1.137405,-0.230762,0.01525,-0.228477,-0.012278
23,0.999395,-1.284179,0.160066,0.237782,0.959206,-0.152882,0.861193,1.14624,0.243363,0.088969,-0.232338,-0.026653
24,0.982344,-1.264371,0.129173,0.250899,0.953418,-0.167429,0.97399,0.177544,0.767753,0.231141,-0.281986,-0.119009
25,0.933636,-1.233742,0.088848,0.265806,0.943733,-0.196734,1.752664,-0.938806,0.877172,0.459185,-0.227363,0.009371
26,0.812495,-1.192214,-0.004999,0.268324,0.92919,-0.254163,3.082124,-2.053972,0.213839,0.432482,0.230402,-0.30408
27,0.656839,-1.149667,-0.125617,0.249608,0.912628,-0.323723,2.951559,-2.401046,-0.522633,-0.099522,0.565033,-0.088813
28,0.515631,-1.111906,-0.215423,0.218409,0.896544,-0.385354,2.477381,-3.217533,-0.522762,-0.20196,0.817292,0.319741
29,0.393073,-1.074626,-0.27715,0.182342,0.879412,-0.439747,2.169022,-3.332028,-0.394446,-0.174255,0.945768,0.343922
30,0.300355,-1.041836,-0.313714,0.149299,0.863332,-0.482038,1.676848,-2.704847,-0.167952,-0.173927,0.517329,0.50723
31,0.26033,-1.014956,-0.32839,0.135817,0.849457,-0.509872,1.197322,-0.64933,0.097393,-0.207716,0.18724,0.039718
32,0.258775,-0.999164,-0.32791,0.13844,0.841019,-0.522986,0.461054,0.236614,0.294077,0.034259,0.005447,0.024787
33,0.287599,-1.000197,-0.312658,0.153208,0.841577,-0.517946,-0.509487,1.119521,0.387647,-0.003672,-0.046747,0.167039
34,0.333539,-1.016033,-0.28814,0.172447,0.850025,-0.497706,-1.164936,1.258219,0.370073,-0.059837,-0.197743,0.231959
35,0.38218,-1.04023,-0.259353,0.188715,0.862521,-0.469507,-1.523071,1.166398,0.199978,-0.127299,-0.411272,0.276911
36,0.432848,-1.07138,-0.230114,0.200881,0.877862,-0.434738,-1.831462,1.368788,-0.062013,-0.180876,-0.462823,0.268127
37,0.490977,-1.110225,-0.201035,0.209553,0.895799,-0.391948,-2.163197,1.753756,-0.407723,-0.233845,-0.476152,0.258144
38,0.551397,-1.157831,-0.175028,0.21024,0.915935,-0.341837,-2.424272,1.837482,-0.872194,-0.069508,-0.29829,0.058543
39,0.608816,-1.208463,-0.145268,0.202704,0.935072,-0.290758,-2.361535,1.094702,-0.855849,-0.021552,-0.086104,-0.139479
40,0.653467,-1.245861,-0.092543,0.194074,0.947671,-0.253462,-1.824979,-1.244275,-0.082121,0.002887,0.414801,-0.347947
41,0.695192,-1.270459,0.003193,0.189484,0.955237,-0.227171,-2.042674,-2.942201,0.607538,-0.050431,-0.042731,-0.278764
42,0.773906,-1.295771,0.148284,0.189795,0.962418,-0.194209,-2.368206,-2.902992,0.674648,-0.135627,-0.113129,-0.294317
43,0.870276,-1.315086,0.291453,0.193351,0.967484,-0.163029,-1.747215,-1.39817,0.506142,-0.270102,-0.082337,-0.208644
44,0.971187,-1.3231,0.394698,0.202381,0.96948,-0.13834,-0.984627,0.875855,0.462621,-0.359165,0.058825,-0.095119
45,1.063483,-1.321629,0.455972,0.215515,0.969118,-0.119791,-0.437241,1.827424,0.451338,-0.457214,0.117582,-0.283957
46,1.123312,-1.317517,0.491372,0.225883,0.968096,-0.108414,-0.128552,0.842496,0.337252,-0.515434,0.108046,-0.222442
47,1.105676,-1.308902,0.44417,0.231383,0.965901,-0.116118,1.354766,2.114336,-0.124034,0.030138,0.04304,0.591597
48,1.032336,-1.299751,0.317494,0.229833,0.963492,-0.137288,1.539977,2.171449,-0.447553,0.109126,0.125269,0.254583
49,1.010152,-1.305411,0.290636,0.22211,0.964991,-0.139451,-0.519754,-1.170027,-0.333745,0.672529,0.181035,-0.369582
50,0.964449,-1.305455,0.281838,0.215471,0.965003,-0.149428,0.235562,-1.867209,-0.066929,0.454618,0.351312,0.123061
51,0.97669,-1.307951,0.323642,0.215287,0.965654,-0.14543,-0.854453,-1.080204,0.403012,0.339004,0.261824,0.080428
52,1.053103,-1.307929,0.404843,0.225777,0.965649,-0.128581,-0.932127,0.629868,0.654388,0.129615,0.417652,0.08018
53,1.162358,-1.3025,0.488362,0.243259,0.964224,-0.105276,-0.601694,1.571247,0.71531,0.004529,0.583124,-0.540186
54,1.190929,-1.290773,0.488876,0.256653,0.961049,-0.102471,0.526795,1.429039,0.40184,-0.229553,0.182979,-0.128059
55,1.192517,-1.28618,0.454934,0.260915,0.959769,-0.103693,0.515339,1.657117,-0.147598,-0.239507,-0.182609,0.034952
56,1.168068,-1.286873,0.409425,0.25769,0.959964,-0.10978,0.547082,0.490104,-0.307182,-0.199646,-0.270328,-0.044304
57,1.136652,-1.289592,0.383791,0.251745,0.960722,-0.116721,0.122894,-0.765732,-0.236965,-0.016165,-0.357374,-0.131799
58,1.110679,-1.291201,0.377899,0.247244,0.961167,-0.122533,0.017405,-0.991023,-0.016292,0.093302,-0.238328,-0.223796
59,1.103209,-1.289459,0.37732,0.247816,0.960685,-0.125131,0.102247,0.182214,0.084279,0.017671,-0.302253,-0.057349
60,1.108034,-1.288123,0.364537,0.249566,0.960313,-0.124507,0.233184,1.118883,-0.101878,-0.066735,-0.38759,-0.043279
61,1.10696,-1.290501,0.339418,0.247389,0.960974,-0.123753,0.278673,1.06522,-0.307658,0.077181,-0.231634,-0.153286
62,1.093118,-1.289623,0.314577,0.246403,0.96073,-0.127554,0.354672,0.055757,0.054157,0.165997,-0.141028,-0.24354
63,1.070987,-1.281856,0.304533,0.250063,0.958546,-0.136548,0.260288,-0.946462,0.35068,0.254073,-0.086079,-0.273761
64,1.033926,-1.272334,0.291778,0.252664,0.95579,-0.150381,0.54807,-1.331684,0.265589,0.456122,-0.128946,-0.208414
65,0.955132,-1.261528,0.23935,0.248462,0.952557,-0.175758,1.207847,-1.640213,-0.139604,0.463422,0.068928,-0.109719
66,0.829185,-1.243233,0.156804,0.23723,0.946829,-0.217314,1.786802,-2.754997,0.017556,0.120009,0.295816,-0.00049
67,0.68985,-1.21209,0.066516,0.223415,0.936352,-0.270778,2.379507,-2.572031,-0.164409,-0.1627,0.403385,0.040324
68,0.551047,-1.177242,-0.028216,0.200772,0.923552,-0.326699,2.371099,-2.64839,-0.508337,-0.24458,0.646165,0.151391
69,0.419503,-1.145651,-0.103865,0.16799,0.910979,-0.376679,1.928188,-3.273822,-0.628134,-0.359701,0.822587,0.349763
70,0.312449,-1.117478,-0.158379,0.134619,0.898999,-0.416737,1.550399,-2.656384,-0.461717,-0.236547,0.415775,0.381902
71,0.252782,-1.095004,-0.178038,0.114554,0.88893,-0.443477,1.038338,-1.643646,0.066452,-0.25199,0.097718,0.260814
72,0.22887,-1.079907,-0.1821,0.10695,0.881914,-0.459109,0.610959,-0.827243,0.069898,0.066924,0.058561,0.143526
73,0.22114,-1.072739,-0.178348,0.104782,0.878512,-0.466078,0.112614,-0.186041,0.258943,0.133789,0.136747,0.219573
74,0.243415,-1.076673,-0.162733,0.114303,0.880385,-0.46027,-0.464327,0.637071,0.312611,-0.105667,0.061571,0.175465
75,0.271614,-1.088581,-0.145494,0.124413,0.88597,-0.446733,-0.790192,0.638741,0.177873,-0.177911,-0.323714,0.294405
76,0.297103,-1.107976,-0.132325,0.130703,0.894797,-0.426904,-1.153645,0.704933,-0.075783,-0.190227,-0.557166,0.3388
77,0.322785,-1.135146,-0.118892,0.133859,0.906596,-0.400196,-1.533285,0.66927,-0.152096,-0.169198,-0.586283,0.35004
78,0.358864,-1.170034,-0.094293,0.13701,0.920764,-0.365257,-1.968862,0.676893,-0.082509,-0.087053,-0.435473,0.315407
79,0.41462,-1.211694,-0.048006,0.141567,0.936213,-0.321644,-2.433026,0.602162,0.093805,-0.016429,-0.230631,0.2141
80,0.515423,-1.257642,0.053679,0.151835,0.951367,-0.268023,-3.019324,-0.057838,0.749649,-0.035533,0.255192,-0.101835
81,0.679597,-1.29779,0.241936,0.169442,0.962965,-0.209707,-3.21836,-1.389535,1.213573,-0.066964,0.316622,-0.351847
82,0.844529,-1.330391,0.470359,0.177996,0.971241,-0.158099,-3.099586,-3.681593,0.740913,-0.207186,0.194652,-0.681638
83,0.958399,-1.35377,0.674061,0.176171,0.976542,-0.123759,-2.083312,-4.073869,0.45689,-0.416314,-0.08224,-0.025457
84,1.0444,-1.360679,0.800706,0.180311,0.978006,-0.104776,-0.867417,-0.167283,0.413375,-0.427945,-0.140329,0.199518
85,1.119424,-1.358962,0.836127,0.189167,0.977647,-0.091699,-0.008364,2.66987,0.120911,-0.538303,-0.145005,-0.270438
86,1.132974,-1.357894,0.816083,0.191338,0.977422,-0.08957,0.303212,0.845725,-0.050832,-0.165505,-0.234136,0.31807
87,1.091204,-1.353644,0.748503,0.191116,0.976515,-0.099398,1.054619,1.860357,-0.291506,0.069962,-0.303526,0.558749
88,1.015997,-1.347871,0.614325,0.187897,0.975255,-0.116445,1.431239,3.108265,-0.468868,0.228988,0.040324,0.212591
89,1.025899,-1.351909,0.588937,0.185671,0.97614,-0.112537,-0.549225,0.29931,-0.128725,1.04112,0.761196,0.367984
90,1.008298,-1.348736,0.590761,0.186281,0.975446,-0.117438,0.273683,-1.233404,0.168475,0.578062,0.810382,0.258658
91,1.054663,-1.349505,0.657123,0.190872,0.975615,-0.108308,-0.983894,-0.505396,0.353174,0.234375,0.774934,-0.107024
92,1.127906,-1.348742,0.716154,0.198958,0.975447,-0.094369,-0.318335,1.552682,0.317798,0.246202,0.359636,-0.076331
93,1.204355,-1.347243,0.750874,0.206948,0.975116,-0.079422,-0.336293,2.163715,0.175885,0.196433,0.185529,0.010604
94,1.261396,-1.348051,0.782281,0.210389,0.975295,-0.067254,-0.376751,0.579445,-0.003966,0.0522,0.023332,-0.100928
95,1.29097,-1.35137,0.826683,0.209173,0.976022,-0.060109,-0.586537,-1.24141,-0.01378,-0.144614,-0.071649,0.003194
96,1.320409,-1.355928,0.881462,0.206538,0.977005,-0.052823,-0.614669,-0.940555,-0.100888,-0.18957,-0.165756,0.090802
97,1.362786,-1.3618,0.929651,0.202973,0.97824,-0.04284,-0.551498,0.184606,-0.212984,-0.236039,-0.342253,0.049127
98,1.428396,-1.36933,0.982884,0.198046,0.979774,-0.028394,-0.603691,0.839174,-0.290031,-0.055239,-0.411247,-0.145724
99,1.499674,-1.376595,1.03888,0.192458,0.981202,-0.013711,-0.584593,0.790207,-0.315472,-0.002883,-0.479905,-0.163581
100,1.570927,-1.383921,1.093891,0.185751,0.98259,2.40E-05,-0.475895,0.950882,-0.364057,0.137888,-0.461471,0.10427
101,1.628346,-1.388796,1.12771,0.180658,0.983484,0.010408,-0.191292,1.373896,-0.108496,0.202063,-0.332239,0.07823
102,1.671024,-1.384796,1.144849,0.183965,0.982752,0.0185,-0.212597,1.112257,0.337139,0.254253,-0.217768,-0.035453
103,1.720549,-1.377609,1.183047,0.189803,0.981397,0.028638,-0.545335,0.286274,0.191664,0.394837,-0.104078,-0.507291
104,1.773387,-1.378187,1.240454,0.18747,0.981508,0.038508,-0.438608,-0.424825,-0.292721,0.3712,-0.030992,-0.299983
105,1.804304,-1.38481,1.287428,0.179862,0.982754,0.042779,-0.378465,-0.964513,-0.446501,0.375879,0.064243,-0.343484
106,1.820288,-1.389812,1.329373,0.174388,0.983667,0.044434,-0.196798,-1.410174,-0.243835,0.415715,-0.028146,-0.426224
107,1.776215,-1.392683,1.318064,0.173411,0.98418,0.036132,0.390516,-1.819904,-0.054405,0.487157,0.107297,-0.259383
108,1.643861,-1.39351,1.226313,0.175851,0.984326,0.012871,1.008343,-2.294843,0.165231,0.49198,0.151004,-0.199776
109,1.447687,-1.387207,1.085445,0.181143,0.983195,-0.022414,1.426691,-3.257967,0.363804,0.31228,0.380773,0.090483
110,1.240101,-1.369815,0.943167,0.188785,0.979871,-0.06481,1.554372,-3.338185,0.599808,0.035702,0.663409,0.377768
111,1.060853,-1.347218,0.820301,0.193488,0.97511,-0.108215,1.746219,-2.649807,0.38128,-0.040106,0.813937,0.381377
112,0.878467,-1.324977,0.673227,0.187304,0.969938,-0.155323,2.181032,-1.626625,-0.390387,-0.184572,0.923555,0.120793
113,0.694518,-1.30735,0.505525,0.166653,0.965498,-0.200073,2.001922,-0.807448,-1.028279,-0.177777,0.627397,0.031082
114,0.555831,-1.285056,0.378692,0.148718,0.959453,-0.239421,1.878136,-0.951012,-0.451052,-0.168615,0.583821,-0.005239
115,0.466856,-1.257276,0.312572,0.138802,0.951254,-0.275392,1.510628,-1.656373,-0.095929,0.031867,0.579142,0.136934
116,0.385164,-1.237526,0.281901,0.122903,0.944978,-0.303155,0.881236,-3.170595,0.033006,0.125907,0.203429,0.397561
117,0.319088,-1.219166,0.274884,0.108043,0.938812,-0.327031,0.925383,-2.608165,0.269739,0.206791,0.087677,0.399327
118,0.28456,-1.206102,0.286973,0.100124,0.934233,-0.342308,0.348279,-2.123439,0.496891,0.184513,-0.059813,0.29792
119,0.273701,-1.199984,0.320324,0.097945,0.932033,-0.348873,0.054574,-2.187309,0.739544,0.108613,-0.1385,0.26379
120,0.262133,-1.19571,0.361486,0.094934,0.930476,-0.353827,-0.015887,-2.654789,0.756743,-0.090585,-0.220225,0.304159
121,0.239964,-1.194306,0.39685,0.087378,0.929961,-0.357113,-0.152191,-2.779285,0.573284,-0.237677,-0.425017,0.317639
122,0.210745,-1.196891,0.42371,0.076404,0.930908,-0.357161,-0.288335,-2.6438,0.376675,-0.303699,-0.560119,0.40808
123,0.179526,-1.202617,0.442221,0.064266,0.932984,-0.354122,-0.377674,-2.269985,0.212134,-0.253582,-0.611649,0.450893
124,0.149595,-1.210358,0.453953,0.052561,0.935742,-0.348733,-0.451494,-1.948646,0.103316,-0.236186,-0.590878,0.40397
125,0.122526,-1.222957,0.464246,0.041659,0.940111,-0.338299,-0.790932,-1.760988,0.088954,-0.103366,-0.344835,0.151669
126,0.099273,-1.241034,0.475876,0.032092,0.946119,-0.32221,-0.94022,-1.714779,0.117762,0.004407,-0.19055,-0.059245
127,0.078552,-1.256514,0.493013,0.024257,0.951019,-0.308166,-0.673934,-1.941977,0.226736,0.069463,0.223756,-0.46634
128,0.056424,-1.2641,0.508231,0.017025,0.953336,-0.301415,-0.163664,-1.720783,0.146695,-0.090512,0.498827,-0.870399
129,0.028935,-1.256515,0.511432,0.008943,0.951019,-0.308989,0.659756,-1.358008,0.08682,-0.053621,0.451325,-0.798234
130,0.033343,-1.241407,0.529463,0.010783,0.94624,-0.323271,0.679359,-0.211102,0.434796,0.147786,0.200488,-0.43007
131,0.065292,-1.233488,0.563284,0.021592,0.943649,-0.33023,0.174527,-0.036579,0.6511,-0.104539,-0.044738,-0.233842
132,0.107464,-1.232064,0.613281,0.035639,0.943177,-0.330361,-0.044745,-0.340607,0.946924,-0.279536,-0.243928,-0.092262
133,0.159043,-1.231145,0.671078,0.052761,0.942871,-0.328941,-0.154507,0.13606,0.919909,-0.134792,0.005249,0.014915
134,0.228752,-1.240551,0.716185,0.07353,0.945963,-0.315815,-0.921841,2.117144,0.336239,-0.281141,1.141928,0.285831
135,0.223863,-1.254977,0.670923,0.068948,0.950542,-0.302831,0.174634,1.083471,-1.588259,-0.565546,1.592747,-0.230052
136,0.10373,-1.234823,0.556647,0.034136,0.94409,-0.327902,1.563588,-0.883348,-1.380553,-0.152025,-0.017027,0.399069
137,0.046637,-1.223977,0.486021,0.015846,0.940459,-0.339526,-0.168322,1.058984,-1.028739,0.461647,-0.806944,0.684237
138,0.022015,-1.24313,0.429323,0.007084,0.946796,-0.321743,-1.211592,1.849676,-0.987901,0.570766,-0.619312,0.648357
139,0.02214,-1.266147,0.370178,0.00664,0.953952,-0.29987,-0.947535,3.234363,-0.907714,0.983777,-0.009906,0.551167
140,0.0233,-1.282002,0.327949,0.006635,0.958588,-0.284702,-0.624152,1.008665,-0.305467,0.675433,0.674179,0.223942
141,0.043852,-1.299841,0.365412,0.011733,0.963516,-0.267375,-1.365066,-1.423632,0.935884,0.387132,0.637452,0.083644
142,0.139353,-1.339052,0.492404,0.031899,0.973267,-0.227426,-2.343527,-1.309782,1.550609,0.157996,0.194335,0.226129
143,0.31182,-1.379163,0.692649,0.058423,0.981694,-0.18125,-2.414717,-0.978351,1.579597,-0.07237,-0.068761,0.041846
144,0.543697,-1.411397,0.938922,0.08209,0.987323,-0.135805,-2.27401,-0.28878,1.107542,-0.111829,-0.079684,0.042162
145,0.818249,-1.431977,1.217015,0.100974,0.99038,-0.094549,-1.988597,0.091405,0.890063,-0.016013,-0.102059,-0.037318
146,1.11517,-1.440205,1.514743,0.116892,0.991485,-0.057279,-1.802321,0.079656,0.736487,-0.007136,-0.120605,-0.050525
147,1.397384,-1.438765,1.800396,0.129624,0.991297,-0.022707,-1.74052,-0.088267,0.585447,-0.033616,-0.180475,-0.082152
148,1.658722,-1.43094,2.065365,0.138815,0.990236,0.012237,-1.781101,-0.071294,0.372565,-0.030951,-0.176714,-0.162002
149,1.872049,-1.420964,2.286854,0.142504,0.988796,0.044277,-1.540292,-0.461794,0.050008,0.061521,-0.157177,-0.115963
150,2.025842,-1.41324,2.453695,0.140897,0.987614,0.06894,-1.244144,-0.553515,-0.17961,0.119982,-0.068256,-0.112382
151,2.161393,-1.403675,2.603259,0.138129,0.986068,0.092604,-1.335176,-0.651178,-0.19092,0.194498,-0.024276,-0.202025
152,2.285233,-1.39024,2.74701,0.13563,0.983744,0.117628,-1.407142,-1.058676,-0.253925,0.204626,-0.035426,-0.241011
153,2.38549,-1.376048,2.874278,0.132744,0.981096,0.140758,-1.269145,-1.312298,-0.351981,0.216743,-0.011965,-0.279827
154,2.463606,-1.366278,2.978449,0.127362,0.979159,0.158148,-0.904312,-1.019923,-0.523927,0.193942,0.079526,-0.187643
155,2.530305,-1.362841,3.060405,0.118469,0.978455,0.169039,-0.497656,-0.538644,-0.55375,0.200928,0.145523,-0.20772
156,2.578928,-1.362422,3.121108,0.110331,0.978369,0.174944,-0.293499,-0.626967,-0.488118,0.236531,0.204447,-0.233904
157,2.605057,-1.363601,-3.116533,0.105134,0.978612,0.176775,-0.154181,-1.109324,-0.395728,0.174026,0.373942,-0.35335
158,2.608187,-1.366621,-3.085746,0.103077,0.979228,0.174559,0.109665,-1.453498,-0.33576,0.204617,0.245976,-0.38957
159,2.585233,-1.378818,-3.075582,0.10074,0.981629,0.161989,0.692352,-1.780993,-0.460525,0.280928,0.19812,-0.412768
160,2.526168,-1.403067,-3.095488,0.09635,0.985966,0.136276,1.410233,-2.134689,-0.543719,0.401544,0.077068,-0.393905
161,2.348367,-1.440779,3.061722,0.092351,0.99156,0.090917,2.364273,-2.922494,-0.430292,0.510051,-0.015104,-0.211141
162,1.899483,-1.472717,2.667865,0.092611,0.995194,0.031586,2.884173,-2.673503,-0.011441,0.609538,0.052795,-0.080826
163,1.229001,-1.471289,2.042985,0.093535,0.995053,-0.033276,3.092298,-2.574419,0.071071,0.713609,0.310458,0.269894
164,0.805801,-1.436791,1.675162,0.096347,0.991035,-0.092494,2.394487,-2.910188,0.4608,0.635113,0.210809,0.633158
165,0.595404,-1.394896,1.504691,0.098126,0.984569,-0.144854,2.706509,-1.380568,0.219602,0.422031,0.250614,0.710116
166,0.430565,-1.338628,1.351358,0.096025,0.97317,-0.209066,3.213822,-0.81666,-0.047837,0.249312,0.7002,-0.13624
167,0.327805,-1.292416,1.269125,0.08847,0.961502,-0.260149,2.162884,-1.182177,-0.170078,0.316544,0.633683,0.454851
168,0.251024,-1.253842,1.228301,0.077415,0.950189,-0.301891,2.093849,-2.459405,0.146202,0.327599,0.644995,0.496593
169,0.178361,-1.211549,1.222622,0.062372,0.936162,-0.34598,1.921371,-3.729867,0.458546,0.266272,0.152995,0.324541
170,0.124797,-1.177847,1.241712,0.047661,0.923784,-0.379925,1.498143,-3.399194,0.715812,0.235237,-0.007402,0.344815
171,0.094648,-1.151843,1.288148,0.038445,0.913515,-0.404974,1.02574,-3.766143,1.248162,0.326729,-0.090533,0.482046
172,0.084848,-1.13503,1.361126,0.035771,0.906547,-0.420577,0.511808,-3.870918,1.787363,0.368144,-0.206275,0.489745
173,0.088264,-1.126492,1.454193,0.037888,0.90291,-0.428148,0.115495,-4.141384,2.102203,0.272658,-0.387254,0.578188
174,0.083924,-1.123475,1.54126,0.036258,0.901609,-0.431021,-0.065575,-3.996408,1.702306,0.129559,-0.509306,0.653845
175,0.070209,-1.12723,1.606056,0.030106,0.903227,-0.428098,-0.471778,-3.466802,1.214885,0.054153,-0.442442,0.589017
176,0.051084,-1.138039,1.652497,0.021414,0.907813,-0.418819,-0.639629,-2.750899,0.818622,-0.161993,-0.251471,0.518047
177,0.044112,-1.151046,1.691679,0.017971,0.913191,-0.407127,-0.694829,-1.783259,0.774267,-0.209118,-0.20207,0.441093
178,0.052067,-1.164472,1.730267,0.020569,0.91858,-0.39469,-0.715217,-1.17036,0.7007,-0.22258,-0.134812,0.346014
179,0.068926,-1.178476,1.767359,0.026331,0.924024,-0.381414,-0.771805,-0.723737,0.681573,-0.294672,-0.183042,0.26409
180,0.090095,-1.194804,1.804605,0.033037,0.930144,-0.365695,-0.957729,-0.638575,0.591503,-0.303377,-0.179533,0.174411
181,0.104307,-1.216798,1.83833,0.036091,0.937994,-0.344754,-1.263614,-0.981951,0.41355,-0.126805,-0.135687,0.046933
182,0.115675,-1.242625,1.868804,0.037199,0.946633,-0.320144,-1.321414,-0.845158,0.354218,0.031603,0.18267,-0.449158
183,0.12647,-1.262734,1.901884,0.038243,0.952923,-0.300775,-0.842224,-1.231609,0.410404,0.177806,0.336796,-0.672537
184,0.127116,-1.267292,1.935099,0.037886,0.954295,-0.296438,0.112742,-1.559283,0.540339,0.53827,0.651494,-0.929499
185,0.156393,-1.250045,1.981202,0.049104,0.948999,-0.311416,0.969159,-0.220788,1.001805,0.300841,0.119025,-0.487641
186,0.213211,-1.230654,2.043337,0.070591,0.942707,-0.326053,0.558405,-0.209705,1.249954,0.197796,-0.126179,-0.446408
187,0.271293,-1.220916,2.115631,0.091855,0.939414,-0.330234,0.003575,-0.640492,1.302178,0.259662,-0.286109,-0.19595
188,0.331063,-1.2182,2.189816,0.112246,0.938479,-0.32657,-0.449392,-0.174006,1.18839,0.330655,-0.008013,0.070451
189,0.412878,-1.224799,2.249493,0.136071,0.940738,-0.310624,-0.567057,1.922425,0.500151,-0.120416,1.166989,0.641434
191,0.312082,-1.192209,2.170459,0.113481,0.929188,-0.351743,0.642314,-0.810342,-0.463186,-0.647584,-0.450718,0.539807
192,0.28824,-1.195505,2.146289,0.104192,0.930401,-0.35141,-0.216746,0.005803,-0.553554,0.02885,-0.615414,0.761993
193,0.260462,-1.210809,2.103907,0.090714,0.935901,-0.340368,-0.622151,1.133136,-1.334428,0.408615,-0.075748,1.015157
194,0.187513,-1.230361,1.996275,0.062241,0.942609,-0.328031,-0.616907,1.3309,-2.308863,0.429611,0.021594,0.941999
195,0.092381,-1.260947,1.874998,0.028127,0.952379,-0.303599,-1.687704,0.575914,-1.721444,0.687144,1.018903,0.446345
196,0.094708,-1.294117,1.881259,0.02583,0.961968,-0.27192,-1.470382,-0.469752,0.642185,0.695331,0.524482,-0.333381
197,0.156286,-1.322844,1.959946,0.038196,0.969417,-0.242406,-1.565682,-0.760228,0.904674,0.440274,0.170949,-0.101237
198,0.271165,-1.349662,2.089804,0.058743,0.975649,-0.211296,-1.68366,-0.478145,1.326504,0.143726,-0.102786,0.347282
199,0.449111,-1.371611,2.275994,0.085895,0.980228,-0.17822,-1.715146,0.007198,1.45919,0.007184,-0.156467,0.268705
200,0.685345,-1.389752,2.508871,0.113943,0.983656,-0.139373,-2.096928,0.572798,1.273133,-0.04302,-0.170408,0.194686
201,0.96864,-1.40613,2.786729,0.135057,0.986473,-0.092826,-2.406111,0.20159,0.860075,-0.178758,-0.189064,-0.042871
202,1.25041,-1.41591,3.082916,0.146374,0.988029,-0.04857,-2.164328,-1.013068,0.445646,-0.247967,-0.15644,-0.201446
203,1.459122,-1.418535,-2.961401,0.15068,0.988431,-0.016897,-1.63316,-1.318487,0.173078,-0.126266,-0.157071,-0.068186
204,1.641631,-1.419087,-2.761714,0.1507,0.988514,0.010693,-1.458882,-0.31241,-0.091913,-0.021412,-0.177754,-0.080959
205,1.834502,-1.418355,-2.576041,0.146553,0.988403,0.039568,-1.346146,0.880919,-0.244342,0.202919,-0.068176,-0.004946
206,2.02991,-1.414672,-2.402167,0.139343,0.987837,0.068883,-1.333708,1.196511,-0.32264,0.216386,-0.010954,-0.211751
207,2.228567,-1.403052,-2.213851,0.132085,0.985964,0.102041,-1.760152,0.10492,-0.298582,0.380061,-0.001513,-0.625219
208,2.346867,-1.387291,-2.070918,0.130196,0.98321,0.127789,-1.093371,-1.679031,-0.174135,0.394295,0.051961,-0.427625
209,2.364968,-1.383011,-2.023612,0.13081,0.98242,0.133126,-0.148431,-1.070729,-0.201428,0.175876,0.324892,-0.366006
210,2.34972,-1.391034,-2.02046,0.127211,0.983886,0.125574,0.518106,-1.01822,-0.323958,0.225222,0.388276,-0.545175
211,2.274889,-1.40667,-2.071929,0.124499,0.986561,0.105738,0.978892,-1.198058,-0.239324,0.344694,0.391353,-0.343806
212,2.158571,-1.422537,-2.169766,0.122882,0.98903,0.081881,1.174025,-0.898677,-0.151819,0.333935,0.313094,-0.179507
213,1.953919,-1.438841,-2.355578,0.121982,0.991306,0.049163,1.804102,-1.173839,-0.085109,0.233258,0.235866,-0.230529
214,1.523356,-1.444713,-2.755125,0.125551,0.992062,-0.005961,3.11,-2.158063,0.357904,0.272277,0.024982,-0.230123
215,0.99716,-1.41711,3.041976,0.128542,0.988213,-0.083052,3.548615,-1.95386,0.060536,0.100386,0.367759,0.099089
216,0.671301,-1.373486,2.757492,0.121914,0.980597,-0.153471,3.276884,-2.755478,-0.103773,0.023487,0.283303,0.449354
217,0.445659,-1.322916,2.591125,0.105749,0.969435,-0.221364,3.001037,-2.872927,-0.329876,-0.016851,0.139467,1.088598
218,0.289652,-1.2662,2.462824,0.085654,0.953968,-0.287398,3.624993,-1.318676,-0.87337,0.031152,0.446254,0.388014
219,0.136595,-1.198552,2.362386,0.049524,0.931513,-0.360307,3.452641,-3.734474,-0.786021,0.196203,0.909688,0.366624
220,0.052053,-1.137979,2.334452,0.021822,0.907788,-0.418852,2.922359,-2.067218,0.180221,0.30612,0.817707,0.297636
221,0.058641,-1.084252,2.363558,0.027403,0.883954,-0.466762,2.422748,-0.538239,1.067805,0.219377,0.453296,0.214611
222,0.091809,-1.041989,2.416585,0.046252,0.86341,-0.502372,1.84849,-0.946661,1.669999,0.09129,0.051782,0.393073
223,0.112833,-1.00487,2.481301,0.060372,0.844092,-0.532782,1.499349,-2.21081,1.889234,0.112602,-0.317771,0.435065
224,0.114398,-0.978635,2.538708,0.063712,0.829736,-0.554502,0.881648,-2.28302,1.568818,0.14013,-0.832025,0.319776
225,0.108699,-0.96722,2.580089,0.061575,0.823311,-0.564235,0.173826,-1.74148,1.02266,0.113413,-0.819115,0.343974
226,0.107779,-0.969122,2.610829,0.060887,0.824389,-0.562733,-0.416798,-1.156879,0.794527,-0.00626,-0.642672,0.457097
227,0.112746,-0.983245,2.63957,0.062365,0.832301,-0.550799,-1.024862,-0.765541,0.693638,-0.102129,-0.543665,0.487673
228,0.130599,-1.008589,2.669731,0.069418,0.846081,-0.528509,-1.527573,-0.139375,0.650868,-0.14263,-0.502895,0.492102
229,0.161101,-1.042052,2.698866,0.080915,0.863441,-0.49791,-1.882978,0.528677,0.395429,-0.197889,-0.437538,0.550828
230,0.201755,-1.080875,2.723704,0.094293,0.88237,-0.461003,-2.094573,1.173753,0.166661,-0.096215,-0.437103,0.396672
231,0.248822,-1.122989,2.746335,0.106627,0.901399,-0.419646,-2.164221,1.374038,-0.042385,-0.03842,-0.418382,0.241698
232,0.289905,-1.162942,2.765646,0.113381,0.917974,-0.380078,-1.955989,1.003303,-0.21778,0.021721,-0.310308,0.016111
233,0.311654,-1.203504,2.773025,0.110105,0.933303,-0.341779,-2.025105,0.644069,-0.631205,-0.065503,-0.221114,0.07974
234,0.316766,-1.248106,2.765321,0.098776,0.948386,-0.301326,-2.069968,0.598445,-0.903856,-0.034872,-0.123938,0.144634
235,0.309521,-1.286695,2.747911,0.085373,0.959914,-0.266957,-1.49057,0.341018,-0.699722,-0.025833,0.150621,0.16509
236,0.317325,-1.3089,2.756138,0.080781,0.965901,-0.245967,-0.949233,-0.217917,0.078169,-0.035264,0.288753,0.186183
237,0.387714,-1.328027,2.836272,0.090877,0.970676,-0.222527,-1.546555,-0.357461,0.859318,-0.020351,0.257321,0.05822
238,0.532687,-1.355487,2.989035,0.108488,0.97691,-0.184024,-2.135974,-0.172412,0.914784,-0.273253,0.287433,-0.426938
239,0.691786,-1.378287,-3.116137,0.122027,0.981527,-0.147315,-1.759136,-1.253184,0.733999,-0.503481,0.321161,-0.636468
240,0.772108,-1.387762,-3.002905,0.126958,0.983296,-0.130379,-0.585527,-1.421797,0.324738,-0.405569,-0.210011,-0.249275
241,0.785662,-1.382701,-2.986059,0.132233,0.982362,-0.132163,0.43907,0.883703,0.175117,0.16217,-0.282518,0.366385
242,0.736808,-1.371096,-3.092532,0.133273,0.980126,-0.146897,1.521035,3.722986,-0.576197,0.290403,-0.145318,0.732499
243,0.687608,-1.349243,3.063759,0.139453,0.975557,-0.169791,1.517404,3.248782,-0.00198,0.637341,0.514906,-0.359521
244,0.738387,-1.353336,3.098692,0.145203,0.976448,-0.159539,-1.121465,-0.852946,0.258309,0.480927,0.364631,0.493814
245,0.706353,-1.340429,3.100716,0.148188,0.973583,-0.173683,0.841553,-1.268083,0.340919,0.046133,0.372639,0.301354
246,0.729734,-1.333061,3.133423,0.156986,0.971874,-0.175513,-0.31433,-0.121138,0.632614,-0.017154,0.301396,0.078238
247,0.786992,-1.324379,-3.101488,0.172743,0.969792,-0.172193,0.182664,0.946035,0.792815,0.154985,0.629115,-0.348376
248,0.82411,-1.304733,-3.099164,0.192964,0.964813,-0.178573,0.909148,2.125817,0.565641,-0.131654,0.253341,0.040634
249,0.819372,-1.28926,3.133654,0.203002,0.96063,-0.189657,0.947152,1.85455,-0.093907,-0.239791,-0.054151,0.140066
250,0.787566,-1.280347,3.07789,0.202927,0.958115,-0.202049,0.799643,0.608571,-0.330486,-0.04419,-0.208176,-0.122139
251,0.739688,-1.278105,3.029147,0.194473,0.957471,-0.213117,0.429203,-0.288747,-0.458076,0.040864,-0.158566,-0.162356
252,0.699879,-1.278608,2.990338,0.185527,0.957616,-0.220319,0.322955,0.072647,-0.432576,0.117009,-0.166631,0.051252
253,0.678201,-1.279441,2.957324,0.180207,0.957856,-0.223668,0.235769,0.700052,-0.346395,0.14009,-0.273468,0.153798
254,0.674948,-1.278494,2.937157,0.180045,0.957583,-0.224961,0.216086,0.820647,-0.118087,0.192162,-0.26253,-0.050903
255,0.674652,-1.276132,2.924501,0.181391,0.9569,-0.22678,0.205188,0.353857,-0.058813,0.280005,-0.224325,-0.137051
256,0.652561,-1.269739,2.900713,0.180049,0.955023,-0.235588,0.682302,-0.107867,-0.091208,0.408071,-0.100638,-0.189873
257,0.602947,-1.252165,2.853516,0.177635,0.949665,-0.258014,1.44046,-0.375998,-0.028953,0.523918,-0.065189,-0.14111
258,0.525195,-1.217916,2.789752,0.173271,0.938381,-0.299011,2.317954,-1.145258,0.042255,0.410652,0.191685,-0.194
259,0.425924,-1.171769,2.721269,0.160518,0.921439,-0.353799,2.713922,-2.438255,-0.096464,0.088521,0.530114,0.003381
260,0.304313,-1.121985,2.66467,0.130008,0.900964,-0.413949,2.836725,-3.752621,-0.248814,-0.249469,0.530906,0.319879
261,0.194664,-1.07059,2.62462,0.092772,0.877483,-0.470541,2.507827,-3.603312,-0.272667,-0.245665,0.548878,0.456747
262,0.116801,-1.031707,2.604883,0.059823,0.858177,-0.50985,1.671653,-2.611642,-0.055452,-0.170556,0.569146,0.407342
263,0.073968,-1.004847,2.601947,0.039626,0.84408,-0.534745,1.348119,-1.627641,0.037167,-0.22441,0.070684,0.157273
264,0.055956,-0.981005,2.604703,0.031105,0.831057,-0.555311,0.962509,-0.769752,0.285475,-0.069924,-0.09302,0.297377
265,0.064542,-0.971703,2.617422,0.036369,0.825847,-0.562714,0.123587,0.422752,0.364613,0.149376,-0.317089,0.447526
266,0.09852,-0.978958,2.626136,0.054873,0.829917,-0.555177,-0.701668,1.749558,0.146708,-0.09415,-0.16117,0.228822
267,0.142751,-1.001313,2.635974,0.076709,0.84218,-0.533706,-1.32916,1.673079,0.102899,-0.108081,-0.206239,0.154449
268,0.179878,-1.03189,2.647246,0.091815,0.85827,-0.504911,-1.718075,1.230532,0.021701,-0.070346,-0.356104,0.185041
269,0.215548,-1.072679,2.66171,0.102185,0.878484,-0.466708,-2.286473,1.14573,-0.123166,-0.129407,-0.437017,0.203342
270,0.251566,-1.125055,2.675075,0.107314,0.902291,-0.417547,-2.806285,1.262755,-0.432458,-0.12567,-0.418786,0.175085
271,0.290885,-1.185198,2.689772,0.107866,0.926573,-0.360302,-3.006659,1.229679,-0.511796,0.007124,-0.277968,0.016109
272,0.333826,-1.236491,2.721685,0.107505,0.944638,-0.309985,-2.249424,0.205728,-0.047995,0.030435,0.463977,-0.416562
273,0.383645,-1.270266,2.786223,0.110797,0.95518,-0.274491,-2.002828,-1.04399,0.573829,0.01518,0.531652,-0.456069
274,0.477912,-1.306852,2.910511,0.11998,0.965369,-0.23164,-2.494541,-1.218081,0.846219,-0.046173,0.192468,-0.236637
275,0.593444,-1.339483,3.050437,0.12819,0.973366,-0.190036,-2.049974,-0.903003,0.522045,-0.317307,-0.064934,-0.159863
276,0.687153,-1.357037,-3.122376,0.134547,0.97724,-0.16397,-0.997068,-0.537749,0.442405,-0.393352,-0.11521,-0.137971
277,0.729324,-1.353992,-3.073304,0.143323,0.97659,-0.16037,0.200558,-0.113918,0.506843,-0.406674,-0.340085,-0.017212
278,0.715994,-1.34314,-3.101902,0.148122,0.974198,-0.170254,0.831152,1.603807,-0.163933,0.14767,-0.265549,0.72546
279,0.693643,-1.330771,3.102943,0.151973,0.971332,-0.182775,1.077212,2.896374,-0.207668,0.275578,0.40376,-0.03094
280,0.721913,-1.329545,3.092983,0.157866,0.97104,-0.179299,-0.471563,0.841622,0.027702,0.605745,0.542617,0.498529
281,0.691343,-1.314532,3.059796,0.16159,0.967344,-0.195252,1.076259,-0.194821,0.000317,0.280198,0.309359,0.530457
282,0.679424,-1.307747,3.06439,0.163372,0.965601,-0.202266,-0.267324,-1.054659,0.405436,0.261479,0.146154,0.471202
283,0.730008,-1.314207,3.130496,0.169225,0.967261,-0.189093,-1.001535,-0.282318,0.505072,0.302546,0.570825,-0.590784
284,0.807215,-1.310237,-3.08708,0.186078,0.966246,-0.178131,0.213385,1.364554,0.794526,0.110431,0.65204,-0.15387
285,0.853572,-1.296719,-3.096378,0.20396,0.962675,-0.177887,0.521262,3.273809,0.191753,-0.200969,0.17914,0.139359
286,0.869738,-1.288254,-3.133648,0.213029,0.96035,-0.179818,0.722473,1.903407,-0.134098,-0.176057,-0.298851,-0.139015
287,0.837815,-1.287067,3.104565,0.208028,0.960018,-0.187288,0.354774,-0.020999,-0.484577,-0.060979,-0.326382,0.024431
288,0.799386,-1.292048,3.073664,0.197248,0.961401,-0.191806,0.064907,-0.584889,-0.410035,0.062746,-0.310796,-0.084683
289,0.772618,-1.294378,3.053456,0.19048,0.962039,-0.195412,0.168841,-0.058704,-0.218772,0.116664,-0.188571,-0.010307
290,0.763841,-1.293746,3.030808,0.189178,0.961866,-0.197516,0.285852,1.088041,-0.180968,0.089935,-0.197721,-0.015085
291,0.763384,-1.290136,3.005032,0.191488,0.960873,-0.20011,0.410641,1.154419,-0.105406,0.069422,-0.221096,-0.01481
292,0.761796,-1.285652,2.988412,0.194142,0.959621,-0.20353,0.257807,0.333929,0.083653,0.209117,-0.210262,-0.062446
293,0.74629,-1.27513,2.980586,0.197807,0.956608,-0.213918,0.741572,-0.701161,0.373574,0.495201,-0.11031,-0.118403
294,0.702166,-1.253365,2.947396,0.201582,0.95004,-0.238277,1.347461,-0.597367,0.26551,0.599718,-0.090986,-0.136662
295,0.621858,-1.222427,2.881534,0.198852,0.939931,-0.277448,2.182424,-1.141636,0.053054,0.268357,0.135372,-0.149142
296,0.519932,-1.183498,2.808954,0.187637,0.925933,-0.327766,2.379715,-2.082117,-0.156939,-0.14801,0.316041,0.037666
297,0.395707,-1.144503,2.734955,0.159383,0.910505,-0.381535,2.423704,-3.190472,-0.610274,-0.26209,0.40314,0.253361
298,0.273087,-1.101336,2.672676,0.122013,0.891813,-0.435631,2.416249,-3.308097,-0.492671,-0.167164,0.755771,0.351723
299,0.18563,-1.064566,2.641878,0.089491,0.874579,-0.476545,1.697622,-2.634749,-0.159927,-0.060484,0.63241,0.466505
300,0.13999,-1.037086,2.633073,0.070984,0.860925,-0.503748,1.247328,-1.430503,0.10885,-0.259979,0.259283,0.290674
301,0.125993,-1.013537,2.636112,0.066456,0.848708,-0.524663,1.075023,-0.633896,0.312792,-0.052006,-0.088286,0.216588
302,0.136095,-0.998753,2.649562,0.073447,0.840797,-0.536339,0.378396,0.521402,0.512508,0.192803,-0.137641,0.316201
303,0.176901,-1.001438,2.667131,0.094868,0.842247,-0.530672,-0.533578,1.624477,0.375469,0.103954,-0.105156,0.277148
304,0.225104,-1.019136,2.685567,0.116982,0.851655,-0.510872,-1.184316,1.535548,0.268489,-0.086693,-0.084291,0.193581
305,0.269655,-1.046664,2.707499,0.133321,0.865759,-0.482369,-1.627267,1.154001,0.164402,-0.17101,-0.335165,0.222359
306,0.311527,-1.082076,2.731491,0.143904,0.882934,-0.44689,-1.983293,1.034564,-0.028075,-0.202894,-0.415847,0.201574
307,0.353561,-1.124324,2.754406,0.149498,0.901976,-0.405069,-2.294143,1.124206,-0.330531,-0.174462,-0.490034,0.173776
308,0.396501,-1.176664,2.775246,0.148296,0.92333,-0.354203,-2.763726,1.210364,-0.68964,-0.02676,-0.426077,0.081132
309,0.447072,-1.234469,2.804112,0.142671,0.943973,-0.297573,-2.773215,1.064188,-0.623289,0.069655,-0.138599,-0.055928
310,0.496668,-1.276178,2.851648,0.138354,0.956913,-0.255274,-1.827865,-0.519993,-0.082681,0.037732,0.499981,-0.387533
311,0.556888,-1.306804,2.951321,0.137906,0.965356,-0.221491,-2.297193,-2.326083,0.701498,0.051059,0.353476,-0.338628
312,0.678376,-1.338714,3.121922,0.144319,0.973189,-0.17906,-2.444554,-1.873919,0.707367,-0.058732,0.062638,-0.227114
313,0.800139,-1.359264,-3.014376,0.150613,0.97771,-0.146237,-1.391949,-0.593831,0.421454,-0.310419,-0.07912,-0.263248
314,0.872888,-1.36272,-2.9434,0.158254,0.97843,-0.13273,-0.332391,0.5575,0.360082,-0.514577,-0.293494,-0.299017
315,0.89926,-1.352972,-2.938322,0.169158,0.97637,-0.13444,0.797943,1.591245,0.338879,-0.183639,-0.392309,0.496821
316,0.831928,-1.329908,-3.067807,0.176335,0.971127,-0.160644,2.280138,3.477033,-0.20866,0.025905,-0.28352,0.853912
317,0.772218,-1.30425,3.09011,0.183766,0.964686,-0.188675,1.424111,2.296129,-0.121259,0.581921,0.766377,-1.192368
318,0.827028,-1.329796,-3.118233,0.175627,0.9711,-0.161581,-1.935985,-2.545587,-0.128911,0.704424,0.505112,0.049291
319,0.73322,-1.321703,3.132224,0.164974,0.969136,-0.183155,0.843987,-2.334965,-0.065965,0.652012,0.335932,0.108692
320,0.779202,-1.32122,-3.099832,0.173548,0.969017,-0.175712,-0.72391,0.970555,0.767015,0.332204,0.820991,-0.501625
321,0.877579,-1.310787,-3.040965,0.197733,0.966387,-0.164269,0.345202,2.251252,0.846549,0.415426,1.338269,-1.223258
322,0.884593,-1.289658,-3.07876,0.214634,0.96074,-0.175779,1.181621,2.596963,0.248403,-0.254093,-0.461289,0.200926
323,0.888732,-1.280907,-3.131022,0.221878,0.958275,-0.180183,0.673538,2.265245,-0.27174,-0.168671,-0.481988,0.034508
324,0.870204,-1.280393,3.115294,0.218878,0.958129,-0.18458,0.203898,0.037441,-0.319167,-0.072745,-0.358321,0.035624
325,0.855057,-1.286047,3.11627,0.211966,0.959732,-0.184317,-0.323962,-1.116343,-0.105595,0.22619,0.089844,-0.199015
326,0.852603,-1.28918,3.126066,0.209248,0.960608,-0.182857,-0.066442,0.033873,0.007961,0.256893,0.082498,-0.145986
327,0.86766,-1.289113,3.119813,0.212027,0.960589,-0.179727,0.099457,1.446373,-0.121945,0.161341,-0.115603,-0.101324
328,0.876236,-1.289898,3.10241,0.212981,0.960807,-0.17742,0.18531,1.006424,-0.198762,0.033586,-0.30561,-0.093454
329,0.865282,-1.290274,3.082314,0.21075,0.960911,-0.179508,0.202309,0.058201,-0.181404,0.046681,-0.306614,-0.145993
330,0.833277,-1.288179,3.060665,0.206387,0.960329,-0.187513,0.430014,-0.917759,-0.070673,0.231907,-0.091493,-0.1803
331,0.771609,-1.277144,3.022298,0.201816,0.957193,-0.20746,0.962173,-1.351413,0.022262,0.498883,-0.140314,-0.194563
332,0.688021,-1.25693,2.961679,0.19604,0.951147,-0.238487,1.629964,-1.171421,-0.013896,0.388143,-0.098547,-0.122185
333,0.588734,-1.225292,2.88708,0.188058,0.940905,-0.281641,2.203956,-1.703694,-0.070093,0.228095,-0.01346,0.050302
334,0.462916,-1.182747,2.800084,0.168965,0.925649,-0.338549,2.841839,-2.564146,-0.428799,-0.153859,0.234095,0.138628
335,0.319606,-1.136296,2.716804,0.132258,0.907081,-0.399629,2.64268,-3.924927,-0.682683,-0.169062,0.408959,0.384966
336,0.199992,-1.091757,2.6681,0.091567,0.887438,-0.451731,2.290426,-3.377557,-0.332263,-0.273451,0.655622,0.376811
337,0.131778,-1.052075,2.647469,0.065142,0.868454,-0.491464,1.871893,-2.231995,-0.067463,-0.162187,0.582748,0.437966
338,0.086806,-1.019289,2.643928,0.045426,0.851736,-0.521991,1.544391,-1.947541,0.209759,-0.167634,0.15214,0.376163
339,0.068664,-0.992385,2.649842,0.037508,0.837332,-0.5454,1.142005,-0.482764,0.286256,-0.027575,0.017602,0.24915
340,0.089074,-0.977584,2.658039,0.049728,0.829149,-0.556805,0.447943,1.250872,0.24714,0.033386,0.061949,0.090115
341,0.126056,-0.97782,2.66566,0.070257,0.829281,-0.554392,-0.314109,1.626512,0.209289,-0.013952,-0.100872,0.118189
342,0.169342,-0.993301,2.678715,0.092006,0.837833,-0.538112,-1.11806,1.548147,0.257185,-0.026973,-0.322757,0.175731
343,0.213879,-1.022895,2.698167,0.11056,0.85362,-0.509021,-1.797213,1.327149,0.168335,-0.083216,-0.351682,0.198596
344,0.257328,-1.063651,2.719767,0.123603,0.874134,-0.469684,-2.259891,1.226152,-0.014229,-0.124976,-0.37679,0.197208
345,0.300854,-1.113544,2.739423,0.130825,0.897269,-0.421645,-2.702332,1.36144,-0.428758,-0.101543,-0.375388,0.121855
346,0.342326,-1.175772,2.752561,0.129175,0.922987,-0.362489,-3.234016,1.585437,-0.838684,-0.075571,-0.238921,-0.05728
347,0.4041,-1.241824,2.785802,0.127022,0.946375,-0.297034,-3.154888,1.309788,-0.439331,-0.007958,0.295294,-0.362008
348,0.484042,-1.286671,2.865349,0.130439,0.959907,-0.248097,-2.246793,-0.673859,0.396358,0.102104,0.730904,-0.419917
349,0.571892,-1.321042,2.991281,0.133759,0.968973,-0.207817,-2.385786,-1.989692,0.571193,0.111022,0.054693,-0.158638
350,0.665995,-1.350866,3.127653,0.134772,0.975913,-0.171519,-1.865627,-1.828753,0.366317,-0.257163,-0.461356,-0.139608
351,0.73396,-1.363355,-3.055595,0.137932,0.978561,-0.152905,-0.659733,-1.184609,0.47326,-0.345146,-0.589203,-0.087192
352,0.751258,-1.352051,-3.029539,0.148098,0.976171,-0.158572,0.724787,0.280161,0.596327,-0.224118,-0.748677,0.508365
353,0.75323,-1.330825,-3.066281,0.162552,0.971345,-0.173361,1.116996,2.714254,0.272277,0.022476,-0.502,0.405386
354,0.773584,-1.313375,-3.104652,0.177865,0.96705,-0.182118,0.724552,2.556728,0.312466,0.05004,-0.128655,0.095433
355,0.867252,-1.325726,-3.030451,0.184995,0.97012,-0.156943,-2.212726,0.11475,0.020545,0.41437,1.22092,-0.385308
356,0.85908,-1.322992,-3.011289,0.185714,0.969453,-0.160182,1.306718,-1.415203,0.220141,0.416092,0.549803,0.116832
357,0.827201,-1.309951,-3.047637,0.189805,0.966172,-0.174564,0.486239,0.791393,0.295972,0.192977,0.192138,0.48563
358,0.836796,-1.30122,-3.059156,0.197728,0.963884,-0.17838,0.245906,1.067618,0.158275,-0.045781,-0.141847,0.353398
359,0.881521,-1.303274,-3.02828,0.203977,0.964429,-0.168101,-0.633291,0.479948,0.297097,0.266436,0.465366,-0.418233
360,0.924162,-1.296774,-2.996958,0.215957,0.96269,-0.163027,0.251744,1.045985,0.501243,0.246751,0.523165,-0.293089
361,0.939112,-1.289342,-3.023911,0.224137,0.960653,-0.164001,0.638881,2.514082,-0.136731,-0.1214,-0.056569,0.075652
362,0.925377,-1.286416,-3.079572,0.224109,0.959836,-0.168754,0.706473,1.392079,-0.394399,0.000653,-0.345441,-0.274071
363,0.891078,-1.28714,-3.123859,0.217649,0.960039,-0.175903,0.283089,-0.029512,-0.431854,0.109499,-0.24286,-0.189545
364,0.862145,-1.289215,3.133885,0.210957,0.960617,-0.18083,0.257547,-0.225434,-0.165794,0.208812,-0.108353,-0.100985
365,0.8495,-1.283372,3.117634,0.212866,0.958977,-0.187187,0.412469,0.374646,0.149644,0.190103,-0.19471,-0.068642
366,0.833916,-1.274786,3.09211,0.216013,0.956508,-0.196007,0.681817,0.362479,0.028696,0.210897,-0.216197,0.022774
367,0.787338,-1.260479,3.045595,0.216328,0.952237,-0.215491,1.206453,-0.385145,0.056819,0.312725,-0.223736,-0.124521
368,0.712266,-1.237691,2.981831,0.213687,0.945032,-0.247472,1.760045,-0.912157,0.034656,0.315366,-0.216531,-0.092539
369,0.609916,-1.201192,2.90345,0.206914,0.93247,-0.296101,2.499334,-1.873494,0.041052,0.28445,0.120646,-0.080181
370,0.489131,-1.156971,2.827686,0.188932,0.915589,-0.354953,2.665336,-2.891631,-0.16906,0.056704,0.352523,0.042591
371,0.360453,-1.112253,2.763889,0.156116,0.896698,-0.414188,2.546453,-3.850448,-0.315008,-0.063007,0.649185,0.278415
372,0.252514,-1.068936,2.724481,0.120185,0.876689,-0.465794,2.184134,-3.336456,-0.133395,-0.045783,0.749043,0.396565
373,0.183815,-1.03328,2.707152,0.093583,0.858983,-0.503372,1.614893,-2.111152,0.03411,-0.0403,0.718837,0.529998
374,0.158008,-1.004788,2.704507,0.084381,0.844048,-0.529581,1.283237,-0.912433,0.250311,-0.357407,0.007148,0.173746
375,0.14579,-0.98429,2.70957,0.080402,0.832879,-0.547578,0.804963,-0.692588,0.299032,-0.160877,-0.080224,0.258256
376,0.157359,-0.976042,2.719388,0.087805,0.828286,-0.553377,0.051757,0.758719,0.318616,0.123377,-0.142312,0.362825
377,0.193094,-0.984414,2.73189,0.106185,0.832948,-0.543062,-0.744001,1.443507,0.255565,-0.115248,-0.083039,0.199647
378,0.234399,-1.00502,2.747859,0.124505,0.844173,-0.521405,-1.312878,1.305229,0.164174,-0.128381,-0.203609,0.181561
379,0.27285,-1.036816,2.764843,0.137152,0.860788,-0.490129,-1.836343,1.154599,-0.074298,-0.110342,-0.472879,0.262697
380,0.308704,-1.077838,2.779753,0.143777,0.880937,-0.450855,-2.186152,1.160065,-0.338463,-0.110544,-0.501939,0.234135
381,0.340509,-1.1279,2.788582,0.143121,0.903514,-0.403942,-2.62668,1.200721,-0.798791,-0.04197,-0.445751,0.217007
382,0.37124,-1.188117,2.792663,0.135457,0.927668,-0.347958,-2.910735,1.435737,-0.982674,0.07513,-0.092188,0.030499
383,0.420592,-1.241487,2.819595,0.132034,0.946266,-0.295191,-2.36116,0.830885,-0.184371,0.103714,0.73684,-0.47048
384,0.509572,-1.27849,2.925591,0.140558,0.957582,-0.251536,-2.565416,-1.418758,1.001743,0.143195,0.700057,-0.547552
385,0.635187,-1.314219,3.097035,0.150556,0.967264,-0.204258,-2.766254,-2.12895,0.822857,0.01105,-0.0431,-0.347546
386,0.750722,-1.344544,-3.02601,0.15301,0.974514,-0.164007,-2.05964,-1.789789,0.376568,-0.116649,-0.139843,-0.358469
387,0.846917,-1.360329,-2.906863,0.156507,0.977933,-0.138345,-1.118721,-0.434634,0.329061,-0.299543,-0.170682,-0.16384
388,0.907611,-1.361889,-2.858837,0.163407,0.978258,-0.127657,-0.029481,1.320868,0.201961,-0.417466,-0.350679,0.426073
389,0.936364,-1.355693,-2.881233,0.171889,0.976954,-0.126497,0.552203,3.345651,0.041059,-0.372343,-0.43246,0.534395
390,0.954129,-1.345857,-2.945831,0.18194,0.974808,-0.128976,1.092109,3.958884,-0.069187,-0.191111,-0.316925,0.385888
391,0.906211,-1.334438,-3.041366,0.184307,0.972197,-0.1444,0.879073,0.744384,-0.275927,0.063649,0.299745,-0.74357
392,0.880394,-1.350788,-3.010614,0.168237,0.975896,-0.138966,-0.961673,-4.279599,-0.242823,0.766455,0.796581,-0.239772
393,0.786591,-1.338714,-3.04301,0.162814,0.973189,-0.162426,0.919344,-1.300524,0.115807,0.976072,0.83838,0.16798
394,0.814381,-1.331567,-3.040385,0.172319,0.971521,-0.162609,0.111416,2.109608,0.503173,0.251204,0.484137,0.170696
395,0.876031,-1.321142,-3.027256,0.189781,0.968998,-0.158159,0.264838,2.45774,0.423682,0.039345,0.43832,-0.227858
396,0.900389,-1.31205,-3.041107,0.200472,0.966712,-0.158958,0.488745,1.637962,0.109034,-0.015063,0.129007,-0.053246
397,0.904484,-1.310576,-3.066364,0.202242,0.966333,-0.159016,0.193855,1.163273,-0.273773,-0.077227,-0.102198,0.091222
398,0.893864,-1.314591,-3.08767,0.197515,0.967359,-0.158723,0.069884,0.141144,-0.300034,-0.020864,-0.23338,0.11403
399,0.882956,-1.317244,-3.096011,0.193789,0.968027,-0.159239,-0.097073,-0.236242,-0.086004,0.050641,-0.186625,-0.021974
400,0.893061,-1.319042,-3.082432,0.194031,0.968477,-0.15618,-0.173648,-0.001279,0.095826,0.129287,-0.054933,-0.179284
401,0.909348,-1.31668,-3.078658,0.198354,0.967886,-0.154405,0.158639,1.069134,0.118048,0.078257,-0.182119,-0.100326
402,0.924142,-1.311745,-3.09462,0.204426,0.966633,-0.154329,0.401517,1.629962,0.050659,0.054698,-0.287465,-0.224592
403,0.919726,-1.303706,-3.130421,0.209918,0.964543,-0.159936,0.69915,1.371188,0.037047,0.052533,-0.29395,-0.145911
404,0.899602,-1.293579,3.115158,0.214296,0.961821,-0.170194,0.701815,0.40244,0.137651,0.180113,-0.242323,-0.082858
405,0.863047,-1.280455,3.085476,0.217507,0.958146,-0.186104,0.85421,-0.898377,0.300616,0.262061,-0.237962,-0.033485
406,0.785767,-1.258176,3.032142,0.217541,0.951531,-0.21738,1.62149,-1.409938,0.225446,0.503559,-0.188988,-0.117337
407,0.682396,-1.228363,2.954222,0.211751,0.941941,-0.260575,2.17225,-1.606856,-0.024691,0.529521,-0.021866,-0.105178
408,0.55577,-1.186654,2.862003,0.197718,0.92712,-0.318349,2.850487,-2.31271,-0.185692,0.15003,0.336185,-0.038752
409,0.424164,-1.139459,2.779296,0.172063,0.908407,-0.381027,2.777347,-3.122312,-0.390264,-0.009145,0.499033,0.140091
410,0.297321,-1.091808,2.72099,0.135017,0.887462,-0.440652,2.583577,-3.909168,-0.31797,-0.051918,0.76949,0.426797
411,0.202305,-1.049384,2.691759,0.100082,0.867117,-0.48794,2.040917,-3.045622,-0.016288,-0.06964,0.684779,0.481104
412,0.147743,-1.014161,2.689164,0.077773,0.849038,-0.52257,1.60031,-2.429864,0.357996,-0.080199,0.110267,0.353991
413,0.119568,-0.988774,2.696999,0.065571,0.835353,-0.545784,0.941542,-1.09181,0.379454,-0.107304,0.147649,0.07389
414,0.131379,-0.97558,2.708676,0.07345,0.828027,-0.55585,0.44782,0.653652,0.405815,-0.048639,0.139197,-0.04263
415,0.161678,-0.972895,2.727175,0.090613,0.826519,-0.555562,-0.226787,0.799994,0.624174,-3.70E-05,-0.135418,0.146612
416,0.209968,-0.986143,2.756863,0.115033,0.833903,-0.539783,-1.147375,1.386647,0.701381,-0.075436,-0.294963,0.431675
417,0.270841,-1.013173,2.792794,0.141574,0.848515,-0.509874,-1.733691,1.579976,0.548555,-0.10866,-0.321797,0.43471
418,0.334553,-1.04684,2.829379,0.164273,0.865846,-0.472564,-1.940402,1.627507,0.297087,-0.142636,-0.398912,0.338424
419,0.394349,-1.082826,2.86083,0.180126,0.883286,-0.432841,-1.974012,1.596158,-0.091941,-0.113247,-0.439988,0.137614
420,0.442547,-1.126973,2.882722,0.183881,0.903117,-0.388019,-2.430507,1.268842,-0.691846,-0.105008,-0.40713,0.081562
421,0.473386,-1.187609,2.896504,0.170446,0.927478,-0.33275,-3.038647,0.698,-1.265793,-0.055318,-0.228015,0.002764
422,0.496612,-1.247873,2.917387,0.151188,0.948312,-0.278991,-2.478692,-0.315632,-0.814066,-0.08556,0.856711,-0.378755
423,0.500641,-1.279929,2.956343,0.137643,0.957995,-0.251571,-1.381232,-2.411825,0.030567,-0.060449,0.66853,-0.366838
424,0.521264,-1.304668,3.032335,0.130956,0.964796,-0.22805,-1.800077,-2.435222,0.38339,-0.074788,-0.012862,-0.306343
425,0.598733,-1.334582,-3.140236,0.13188,0.972231,-0.193294,-1.995312,-0.802417,0.35216,-0.148512,-0.158251,-0.06046
426,0.713782,-1.356822,-3.029419,0.139002,0.977195,-0.160487,-1.320724,0.910401,0.336517,-0.221598,-0.249579,-0.125478
427,0.820832,-1.359718,-2.941507,0.153282,0.977805,-0.142786,-0.424917,0.93783,0.692048,-0.254661,-0.321891,-0.081686
428,0.858794,-1.348132,-2.925439,0.167158,0.975312,-0.14426,0.748698,1.561465,0.361888,0.089983,-0.177537,0.626575
429,0.833091,-1.330345,-3.000471,0.176207,0.971231,-0.160153,1.320487,2.611284,0.00241,0.074495,0.11402,0.500348
430,0.830804,-1.319921,-3.042042,0.183308,0.968695,-0.167374,-0.129881,1.101446,0.013442,0.797801,0.428582,-0.072891
431,0.899537,-1.339227,-2.957354,0.179688,0.973307,-0.142727,-0.849732,-1.658393,0.032246,0.580901,0.226384,0.216672
432,0.839051,-1.33483,-2.980928,0.173915,0.972289,-0.156187,0.131141,-1.564889,0.041114,0.444509,0.081208,0.404814
433,0.895447,-1.337037,-2.906805,0.180767,0.972802,-0.144794,-1.226695,-0.178795,0.641945,0.353596,1.752799,-1.223126
434,1.02612,-1.343949,-2.781134,0.192335,0.97438,-0.116518,-0.27785,0.442854,0.470451,0.061037,0.181641,0.235231
435,0.993223,-1.330084,-2.847978,0.1997,0.971168,-0.130146,0.964982,2.500907,-0.058684,-0.200585,-0.217567,0.664081
436,1.001451,-1.326529,-2.885145,0.203671,0.970315,-0.130359,0.220423,1.60007,-0.042434,-0.006924,-0.254647,0.079654
437,1.015296,-1.329289,-2.879517,0.20318,0.970979,-0.126113,-0.331337,-0.19369,-0.137993,0.024725,-0.299806,-0.025925
438,1.02516,-1.337068,-2.849672,0.197951,0.97281,-0.120179,-0.505208,-1.31081,-0.07582,0.124818,-0.244477,-0.180861
439,1.030297,-1.339062,-2.824682,0.196901,0.97327,-0.118162,-0.157385,-0.429575,0.092123,-0.043093,-0.377414,0.038816
440,1.040107,-1.338539,-2.828636,0.19849,0.973149,-0.116483,0.166455,1.20936,-0.057266,-0.017017,-0.41187,-0.115817
441,1.03762,-1.336011,-2.861178,0.200318,0.972564,-0.118226,0.491152,1.480065,-0.103415,-0.026688,-0.366897,-0.339843
442,1.020283,-1.33486,-2.904314,0.199193,0.972296,-0.122267,0.471994,1.079222,-0.278223,-0.018101,-0.369558,0.00688
443,0.979432,-1.333219,-2.965839,0.195358,0.971911,-0.13119,0.75361,0.825796,-0.283409,0.183853,-0.303912,-0.131613
444,0.93729,-1.326005,-3.017687,0.195304,0.970188,-0.14345,0.635672,0.106763,0.077748,0.292214,-0.253361,-0.190351
445,0.902148,-1.315764,-3.045377,0.197931,0.967655,-0.156377,0.612231,-0.682079,0.232419,0.530341,-0.197605,-0.029201
446,0.848088,-1.303004,-3.081856,0.198439,0.964357,-0.174997,0.876623,-1.042743,0.153543,0.634599,-0.191896,-0.20014
447,0.765818,-1.286178,3.141514,0.194609,0.959769,-0.202383,1.367575,-1.404917,-0.010275,0.369494,-0.080359,-0.128718
448,0.660491,-1.259509,3.071187,0.187895,0.95194,-0.241855,1.887032,-2.193655,0.180235,0.180544,0.232859,-0.066739
449,0.538947,-1.22145,3.002789,0.175663,0.939597,-0.293752,2.403509,-3.232582,0.069806,-0.04459,0.419366,-0.126567
450,0.404484,-1.178971,2.936215,0.15028,0.924213,-0.351049,2.33284,-3.796908,-0.202361,-0.062176,0.774151,0.231817
451,0.290731,-1.140433,2.892756,0.119589,0.908814,-0.399682,1.988836,-3.513006,-0.044974,-0.023413,0.955505,0.351312
452,0.229159,-1.107978,2.885763,0.101418,0.894798,-0.434791,1.343487,-2.336456,0.392323,0.065056,0.57087,0.300941
453,0.195098,-1.084422,2.896955,0.090614,0.884033,-0.458548,1.043396,-2.216844,0.577012,-0.06707,0.22406,0.333776
454,0.182439,-1.063558,2.918871,0.08813,0.874089,-0.477696,0.798777,-1.161001,0.750207,0.051152,0.165645,-0.021618
455,0.195369,-1.054136,2.944884,0.095894,0.869474,-0.484574,0.029067,-0.089813,0.738117,0.037056,0.245211,-0.139831
456,0.233263,-1.059988,2.98374,0.113005,0.872349,-0.475635,-0.74676,0.292434,0.924488,-0.075224,0.004787,0.018359
457,0.281601,-1.076109,3.030062,0.131929,0.880117,-0.456048,-1.231955,0.474594,0.812975,-0.117159,-0.22344,0.233651
458,0.331709,-1.099636,3.077104,0.14782,0.891042,-0.429167,-1.566873,0.281669,0.598306,-0.104531,-0.281926,0.400053
459,0.373062,-1.128226,3.121292,0.156084,0.903654,-0.398795,-1.715946,0.058575,0.308063,-0.092348,-0.405699,0.446754
460,0.40949,-1.15937,-3.127337,0.159218,0.916552,-0.366842,-1.706271,0.390374,-0.090742,-0.130044,-0.451387,0.310827
461,0.435499,-1.193375,-3.110735,0.155461,0.929618,-0.334114,-1.663628,0.585094,-0.60344,-0.204442,-0.395179,0.206215
462,0.44107,-1.230372,-3.115098,0.142532,0.942613,-0.301917,-1.640472,0.415925,-0.941688,-0.133453,-0.341112,0.129829
463,0.443126,-1.268702,-3.120206,0.127558,0.954715,-0.268768,-1.724929,0.262327,-0.819235,-0.010691,-0.018406,0.056457
464,0.454164,-1.301523,-3.102292,0.116702,0.963964,-0.239044,-1.469781,-0.764704,-0.215796,0.042799,0.143061,0.075882
465,0.498045,-1.324822,-3.029292,0.116311,0.969901,-0.213899,-1.512569,-1.472752,0.529363,0.04972,0.035333,-0.007735
466,0.57216,-1.344918,-2.921713,0.121249,0.974598,-0.188269,-1.439991,-1.725387,0.507761,-0.108111,-0.076633,-0.576929
467,0.614695,-1.360636,-2.822573,0.120293,0.977997,-0.170403,-1.164916,-3.247331,0.451812,-0.137841,-0.047379,-0.456077
468,0.664733,-1.372112,-2.719216,0.121732,0.980327,-0.155327,-0.976249,-1.58631,0.490526,-0.08859,-0.057598,-0.121071
469,0.74183,-1.377334,-2.659269,0.129872,0.981344,-0.141712,-0.343662,2.346846,0.169438,-0.130284,-0.062491,-0.030407
470,0.831926,-1.376575,-2.632097,0.142646,0.981198,-0.129953,-0.12836,3.124361,0.283177,-0.224829,0.21445,-0.70571
471,0.917781,-1.373739,-2.58243,0.155474,0.980647,-0.118934,-0.349083,0.936416,0.441467,-0.258532,0.284932,-0.63366
472,0.938168,-1.371394,-2.560043,0.159722,0.980185,-0.1171,0.136494,-0.341094,0.082233,-0.20768,0.138788,-0.021527
473,0.898605,-1.364795,-2.608553,0.160024,0.978857,-0.127352,0.87215,1.027022,-0.098116,0.098475,0.055888,0.561311
474,0.841233,-1.352814,-2.691215,0.161191,0.976336,-0.144126,0.981828,0.726298,-0.114056,0.108752,0.101682,0.629508
475,0.777597,-1.350641,-2.754813,0.153188,0.975864,-0.155597,0.415989,-0.311649,-0.59631,0.615413,0.528745,0.086078
476,0.711434,-1.355702,-2.815655,0.139338,0.976956,-0.161641,-0.087555,-0.319425,-0.612636,0.776525,0.671313,0.142369
477,0.766106,-1.384652,-2.751629,0.12829,0.982725,-0.133338,-1.973811,-0.545013,-0.372354,0.7656,0.628252,0.379859
478,0.902429,-1.408166,-2.594147,0.12704,0.986805,-0.100311,-1.787106,-1.092595,0.271653,0.440557,0.634625,0.019165
479,1.139821,-1.420493,-2.345111,0.135998,0.988726,-0.062532,-1.884719,0.024075,0.556892,0.341495,0.761778,-0.277525
480,1.337301,-1.419691,-2.1534,0.146394,0.988605,-0.034817,-1.150004,0.600173,0.506807,0.225936,0.544644,-0.012912
481,1.506042,-1.412088,-2.002954,0.157661,0.987432,-0.010223,-1.049441,1.221599,0.593239,0.030221,-0.06069,0.274109
482,1.673415,-1.399618,-1.867844,0.169401,0.985385,0.017445,-1.216529,1.97129,0.5377,-0.097197,-0.279757,0.107128
483,1.863832,-1.386838,-1.714391,0.17508,0.983127,0.052826,-1.553169,1.807386,0.259957,-0.183946,-0.372455,0.047425
484,2.025655,-1.372366,-1.576011,0.177047,0.980377,0.086587,-1.416459,1.005252,0.136958,-0.262313,-0.479202,-0.088616
485,2.157255,-1.360467,-1.452246,0.17386,0.977962,0.115519,-1.366645,0.274924,-0.284774,-0.099946,-0.423366,-0.192256
486,2.277301,-1.353489,-1.327496,0.163962,0.976481,0.139937,-1.187606,-0.371917,-0.651231,0.213281,-0.315242,-0.461851
487,2.372514,-1.349836,-1.212677,0.152396,0.975687,0.157453,-0.944643,-0.999853,-0.739528,0.371301,-0.286402,-0.408139
488,2.459283,-1.348229,-1.109895,0.139166,0.975334,0.171284,-0.719414,-0.355768,-0.832784,0.371988,-0.206856,-0.228382
489,2.550523,-1.349689,-1.017501,0.122187,0.975655,0.182068,-0.468222,0.187858,-0.868046,0.284185,-0.084817,-0.197053
490,2.634668,-1.350041,-0.930926,0.106286,0.975732,0.191394,-0.503711,-0.241758,-0.759852,0.343939,0.084753,-0.20882
491,2.694894,-1.346942,-0.852361,0.09588,0.975049,0.20017,-0.533009,-1.232637,-0.691489,0.421592,0.423037,-0.403204
492,2.725916,-1.345086,-0.783105,0.090356,0.974635,0.204704,-0.305162,-1.969855,-0.610973,0.284812,0.492757,-0.287575
493,2.746555,-1.346664,-0.73366,0.085519,0.974987,0.205104,-0.054422,-0.928176,-0.521894,0.32273,0.349155,-0.345576
494,2.764515,-1.35183,-0.697432,0.079966,0.976123,0.20192,0.187854,-1.046597,-0.421774,0.41567,0.284589,-0.309723
495,2.755883,-1.362387,-0.67858,0.077824,0.978361,0.191662,0.578336,-1.448794,-0.34696,0.587139,0.371431,-0.121335
496,2.690526,-1.379525,-0.715547,0.082852,0.981763,0.171051,1.146078,-1.489556,0.295855,0.622348,0.510562,-0.014373
497,2.510575,-1.396135,-0.858232,0.102489,0.984785,0.140267,1.506492,-2.465389,0.792073,0.613484,0.476747,-0.149864
498,2.261115,-1.413133,-1.040046,0.121018,0.987597,0.099946,1.680334,-3.953138,0.265356,0.063109,0.009367,-0.252961
499,1.914454,-1.436765,-1.300985,0.125755,0.991031,0.045002,2.568383,-4.621007,-0.252082,-0.207405,-0.25716,0.012462
500,1.390661,-1.449062,-1.749898,0.119401,0.992599,-0.021744,3.006217,-3.224414,-0.369386,-0.044145,-0.036148,0.383667
501,0.929651,-1.425685,-2.187465,0.115843,0.98949,-0.086456,3.1173,-0.192477,0.025951,0.245424,0.319318,0.371262
502,0.698,-1.378984,-2.445986,0.122496,0.98166,-0.146024,3.206855,1.714043,0.29324,0.365846,0.536345,0.179487
503,0.561474,-1.325821,-2.609852,0.129118,0.970143,-0.205274,3.057629,0.454649,-0.050156,0.233644,0.461314,0.149548
504,0.425013,-1.283748,-2.714382,0.116731,0.959084,-0.257913,2.126711,-3.132617,-0.187726,0.241805,0.325203,0.389994
505,0.305063,-1.251863,-2.741513,0.094171,0.949571,-0.299058,1.535435,-5.509174,0.571763,0.467444,0.100845,0.284181
506,0.246559,-1.210622,-2.687408,0.086015,0.935835,-0.341764,1.840748,-4.861471,1.899798,0.680068,0.010423,0.281049
507,0.281046,-1.16693,-2.580886,0.108993,0.919549,-0.377545,1.359977,-2.350938,2.662342,0.492631,-0.06263,0.271222
508,0.324683,-1.133056,-2.474872,0.135222,0.905712,-0.401735,0.815971,-3.217588,2.480191,0.190874,-0.289836,0.436525
509,0.318879,-1.105282,-2.384235,0.140722,0.893591,-0.426242,0.555917,-4.786078,2.274218,0.076776,-0.590689,0.542179
510,0.302622,-1.086813,-2.302236,0.13867,0.885149,-0.444154,0.098932,-4.057506,1.890874,0.025514,-0.611421,0.522782
511,0.293076,-1.083349,-2.239703,0.135309,0.883532,-0.44839,-0.398978,-2.794824,1.17541,-0.235834,-0.382128,0.473873
512,0.289847,-1.089012,-2.192818,0.132428,0.88617,-0.444023,-0.700297,-1.982001,0.899867,-0.161222,-0.177292,0.354958
513,0.298475,-1.099486,-2.147393,0.133518,0.890974,-0.433968,-0.829127,-1.319579,0.790228,-0.175617,-0.122129,0.334161
514,0.314938,-1.112042,-2.106883,0.137167,0.896605,-0.42104,-0.923307,-0.841328,0.620178,-0.244787,-0.166258,0.259205
515,0.334332,-1.129263,-2.06964,0.140218,0.904098,-0.403653,-1.180838,-0.67338,0.402383,-0.130193,-0.308532,0.079343
516,0.349916,-1.154134,-2.034946,0.138738,0.914445,-0.380174,-1.55967,-0.904501,0.187457,-0.06664,-0.293855,-0.00888
517,0.36427,-1.187815,-1.999385,0.133127,0.927555,-0.349153,-1.976945,-0.873562,0.005042,0.044332,-0.163578,-0.229735
518,0.388986,-1.227639,-1.956027,0.127596,0.941697,-0.31131,-2.157712,-0.730221,0.013209,0.068403,-0.053925,-0.405487
519,0.424285,-1.260736,-1.899645,0.125599,0.952315,-0.278044,-1.621862,-1.125144,0.273832,0.27171,0.356294,-0.760393
520,0.440897,-1.276375,-1.852585,0.123828,0.95697,-0.262415,-0.587813,-1.515574,0.311465,0.437085,0.426987,-0.572881
521,0.451436,-1.272565,-1.814912,0.128176,0.955858,-0.264375,0.095027,-1.075479,0.750437,0.054945,-0.131013,-0.271102
522,0.478899,-1.264359,-1.767972,0.138998,0.953414,-0.267708,0.061947,-0.790069,0.800047,-0.063039,-0.325805,-0.271766
523,0.504543,-1.254897,-1.723349,0.150171,0.950517,-0.271943,0.011284,-0.62601,0.842211,0.156485,0.245177,0.509324
524,0.56445,-1.256913,-1.671977,0.165158,0.951142,-0.260844,-0.793933,1.05881,0.320613,-0.106259,1.096252,0.134608
525,0.542457,-1.264319,-1.701511,0.15574,0.953402,-0.258372,0.76436,-0.858696,-1.025891,-0.146844,1.5258,-0.504583
526,0.432175,-1.249433,-1.788414,0.132289,0.948806,-0.286801,1.083489,-0.678149,-0.632924,-0.00117,-0.637099,0.934186
527,0.394054,-1.248283,-1.830418,0.121681,0.948442,-0.292642,-0.025517,0.03155,-0.527281,0.042336,-0.807939,0.794961
528,0.37214,-1.260524,-1.851883,0.111009,0.952251,-0.2844,-0.714962,0.039992,-0.708364,0.307997,-0.436565,0.733146
529,0.315159,-1.288535,-1.92109,0.086328,0.960428,-0.264788,-1.001429,0.660319,-1.874453,0.543448,-0.059381,0.69115
530,0.182224,-1.31964,-2.064754,0.045032,0.968626,-0.244383,-1.198125,-0.224003,-2.200502,0.517071,0.863726,0.546919
531,0.092136,-1.357292,-2.124404,0.019492,0.977294,-0.210955,-2.043532,-2.513272,0.12525,0.627496,1.234253,0.212924
532,0.170151,-1.394977,-1.975859,0.029612,0.984584,-0.172349,-2.010522,-3.360204,1.436206,0.270697,-0.123835,0.237321
533,0.362797,-1.426127,-1.736933,0.051144,0.989554,-0.134732,-2.008882,-1.322382,1.447493,0.006198,-0.130026,0.257062
534,0.74206,-1.448008,-1.354648,0.08273,0.992471,-0.090231,-2.385999,0.699877,1.682618,-0.044598,-0.114465,0.194067
535,1.256633,-1.448657,-0.85797,0.11581,0.99255,-0.037629,-2.599291,0.997558,1.484194,-0.32101,-0.111035,-0.10176
536,1.659225,-1.430154,-0.456116,0.13957,0.990126,0.012374,-2.389605,-0.313621,0.992752,-0.365812,-0.098662,-0.142257
537,1.896218,-1.409553,-0.197697,0.152067,0.987028,0.05131,-1.940271,-1.125524,0.37843,-0.218504,-0.137877,-0.161799
538,2.052993,-1.394074,-0.014474,0.155712,0.984425,0.081501,-1.579401,-1.246546,-0.038705,0.065708,-0.202031,-0.189838
539,2.16428,-1.38198,0.124072,0.155557,0.982227,0.104941,-1.324529,-1.151091,-0.154552,0.217825,-0.119511,-0.148108
540,2.274296,-1.36833,0.249506,0.153308,0.979574,0.130049,-1.432743,-0.346258,-0.198,0.179852,-0.052358,-0.241637
541,2.386386,-1.350676,0.364624,0.149633,0.975871,0.158952,-1.484217,0.076808,-0.191424,0.198954,-0.059688,-0.277711
542,2.47591,-1.333606,0.458911,0.145092,0.972002,0.184772,-1.244132,-0.270833,-0.308942,0.216556,-0.060823,-0.262576
543,2.546111,-1.319999,0.540297,0.139181,0.968715,0.205426,-1.069631,-0.501035,-0.434547,0.202402,0.076421,-0.291333
544,2.60536,-1.30864,0.614333,0.132387,0.965833,0.222753,-0.938982,-0.698291,-0.502816,0.186201,0.188097,-0.375601
545,2.647261,-1.299142,0.676918,0.127287,0.963328,0.236169,-0.703927,-1.063571,-0.467591,0.239504,0.278371,-0.417443
546,2.667511,-1.29623,0.720963,0.123758,0.962543,0.241192,-0.225954,-1.055675,-0.458921,0.287329,0.327054,-0.393322
547,2.678259,-1.300564,0.748955,0.119293,0.963709,0.238774,0.155441,-0.653467,-0.406566,0.366699,0.380941,-0.325246
548,2.676658,-1.308564,0.759543,0.116214,0.965814,0.231683,0.364726,-0.668783,-0.22135,0.33627,0.2331,-0.377557
549,2.647074,-1.320695,0.752414,0.117447,0.968887,0.217814,0.741149,-1.425366,-0.222024,0.39238,0.201508,-0.375956
550,2.588019,-1.341633,0.727864,0.119403,0.973857,0.193198,1.250158,-1.919129,-0.261633,0.474973,0.19283,-0.363959
551,2.466918,-1.372172,0.652999,0.123223,0.980339,0.15405,2.031436,-2.826206,-0.27859,0.503333,-0.020302,-0.162763
552,2.239027,-1.409734,0.48677,0.125827,0.987057,0.099325,2.50584,-3.294799,-0.189218,0.525586,0.090533,-0.001944
553,1.861245,-1.435217,0.178059,0.129437,0.990823,0.038689,2.611444,-3.88053,-0.057406,0.470676,0.025733,0.239296
554,1.429394,-1.435899,-0.177982,0.133083,0.990915,-0.018945,2.256641,-3.686726,0.268879,0.088993,0.279791,0.516793
555,1.051466,-1.415264,-0.513485,0.134437,0.987929,-0.076854,2.957521,-1.314831,0.046409,0.052728,0.494447,0.433818
556,0.741976,-1.373344,-0.823768,0.132536,0.980569,-0.144576,3.509044,-0.048492,-0.09664,0.15703,0.69837,-0.044922
557,0.577534,-1.32745,-0.98557,0.131534,0.970537,-0.201847,2.524456,-0.381059,0.008004,0.131299,0.659315,0.384053
558,0.473594,-1.288153,-1.077619,0.12719,0.960322,-0.248178,2.249918,-1.009373,-0.07002,0.025963,0.473471,0.334603
559,0.394479,-1.246327,-1.117559,0.122519,0.94782,-0.294303,2.116316,-2.532806,0.599706,0.075708,0.054774,0.26757
560,0.346769,-1.203542,-1.108485,0.122023,0.933317,-0.337666,1.734557,-2.958461,1.082557,0.2558,-0.008573,0.26479
561,0.322561,-1.169102,-1.065339,0.123934,0.9204,-0.370801,1.195704,-3.31707,1.452062,0.321973,-0.083257,0.287259
562,0.312325,-1.140205,-1.007098,0.128254,0.908719,-0.397203,0.856729,-3.057805,1.644847,0.268048,-0.230695,0.3564
563,0.314535,-1.120289,-0.934839,0.134705,0.900226,-0.414049,0.275716,-3.222814,1.854644,0.043457,-0.431873,0.520189
564,0.316632,-1.106226,-0.862258,0.139501,0.894014,-0.425755,0.117605,-3.065644,1.58201,-0.080358,-0.471682,0.526036
565,0.312492,-1.100133,-0.804561,0.13941,0.891268,-0.431505,-0.288389,-2.620623,1.201522,-0.181737,-0.446672,0.523027
566,0.308818,-1.103983,-0.75818,0.136779,0.893007,-0.428742,-0.627456,-2.035087,0.788206,-0.22203,-0.445634,0.493012
567,0.310567,-1.116193,-0.718734,0.134186,0.898435,-0.418087,-0.970643,-1.446114,0.584228,-0.256272,-0.331403,0.426724
568,0.322333,-1.134751,-0.681047,0.13379,0.906429,-0.400593,-1.235372,-0.919389,0.42788,-0.207307,-0.217419,0.1675
569,0.34773,-1.158785,-0.640307,0.136456,0.916317,-0.376472,-1.513627,-0.419788,0.406068,-0.188396,-0.183971,0.092094
570,0.386948,-1.187071,-0.591884,0.14127,0.927276,-0.346683,-1.734662,-0.286672,0.342397,-0.105748,-0.080078,-0.046658
571,0.432769,-1.216746,-0.537265,0.145393,0.937976,-0.314719,-1.746942,-0.212954,0.299488,-0.084281,0.06651,-0.267785
572,0.482378,-1.243099,-0.480424,0.149299,0.946786,-0.285118,-1.456732,-0.231984,0.278038,-0.013434,0.333259,-0.606148
573,0.522795,-1.259228,-0.4271,0.153051,0.951854,-0.265584,-0.901332,-0.685022,0.403207,0.109919,0.423192,-0.656931
574,0.552562,-1.261535,-0.383195,0.159734,0.952559,-0.259041,-0.161503,-0.429343,0.557599,0.263575,0.158327,-0.278694
575,0.581038,-1.251945,-0.353329,0.172052,0.949596,-0.262013,0.28855,0.172431,0.726614,-0.065317,-0.080089,-0.254085
576,0.60123,-1.23737,-0.330572,0.185117,0.944927,-0.269872,0.462828,-0.27006,0.676055,-0.151807,-0.183849,-0.265635
577,0.609005,-1.224886,-0.31285,0.193944,0.940767,-0.27808,0.19417,-0.359135,0.540765,0.001902,-0.009615,0.279347
578,0.647338,-1.22215,-0.284358,0.20601,0.939836,-0.272496,-0.365836,1.203942,0.414141,-0.151689,0.184721,0.59943
579,0.705077,-1.230971,-0.262892,0.216009,0.942813,-0.253829,-0.683991,2.097451,-0.310276,-0.252844,0.423779,0.339339
580,0.69148,-1.246431,-0.297856,0.203218,0.947853,-0.245483,0.420561,-0.304263,-1.120945,-0.250505,0.690361,0.387833
581,0.625255,-1.249281,-0.378934,0.184946,0.948758,-0.256203,0.818729,1.227046,-1.060306,-0.165414,-0.32391,0.869179
582,0.55603,-1.248157,-0.462445,0.167344,0.948402,-0.269288,0.562813,-0.177119,-1.072045,-0.071092,-0.450782,0.805238
583,0.482538,-1.261458,-0.516754,0.141253,0.952535,-0.269649,-0.588692,-1.420612,-1.060335,0.37161,-0.072179,0.625423
584,0.430494,-1.291018,-0.55145,0.115229,0.961117,-0.250924,-1.372062,-0.518841,-1.050939,0.543676,0.386387,0.378976
585,0.456212,-1.326335,-0.524912,0.106614,0.970268,-0.217252,-1.62973,0.250902,0.082863,0.602996,0.590905,-0.03403
586,0.539148,-1.339685,-0.440473,0.117583,0.973413,-0.196537,-0.977125,-0.172442,0.689373,0.164278,0.051337,0.158146
587,0.651264,-1.348279,-0.326107,0.133756,0.975345,-0.175487,-1.168643,0.14699,0.892724,0.093584,-0.09769,0.01411
588,0.788866,-1.355259,-0.181073,0.151728,0.976862,-0.150679,-1.341486,-0.479142,0.979914,0.03388,-0.080988,-0.049715
589,0.930073,-1.357524,-0.028351,0.169648,0.977344,-0.126501,-1.263233,-0.194844,0.944845,-0.145752,-0.111438,-0.100428
590,1.059262,-1.356559,0.101705,0.185353,0.977139,-0.104052,-1.027398,0.257106,0.672448,-0.171727,-0.148816,-0.228604
591,1.149302,-1.356425,0.18734,0.194077,0.97711,-0.087018,-0.673516,0.254307,0.266863,-0.148011,-0.153395,-0.206729
592,1.193069,-1.357934,0.230785,0.196327,0.97743,-0.077899,-0.338847,-0.060149,0.027117,-0.040748,-0.199385,-0.220777
593,1.202273,-1.360007,0.243848,0.195145,0.977866,-0.075358,-0.053029,-0.176887,-0.064741,0.049239,-0.213904,-0.228765
594,1.185833,-1.359803,0.22749,0.194065,0.977823,-0.078631,0.290498,0.073259,-0.047706,0.084133,-0.220377,-0.260419
595,1.14348,-1.357918,0.181682,0.192239,0.977427,-0.087541,0.588838,0.124817,-0.146101,0.049201,-0.219523,-0.299452
596,1.072303,-1.354089,0.109278,0.188814,0.976611,-0.102781,0.892901,-0.144564,-0.176747,0.010695,-0.255328,-0.227053
597,0.98257,-1.347588,0.020476,0.184124,0.975192,-0.122809,1.009952,-0.049863,-0.250827,0.016911,-0.381534,-0.063638
598,0.909988,-1.340621,-0.056136,0.180094,0.973626,-0.140005,0.819247,0.083664,-0.177554,0.041036,-0.29812,-0.055505
599,0.861805,-1.333312,-0.107024,0.17854,0.971933,-0.153147,0.616059,0.10304,-0.05188,0.042621,-0.231515,-0.075018
600,0.829829,-1.324817,-0.145163,0.179639,0.969899,-0.164345,0.661634,0.393219,0.068776,0.087649,-0.213063,-0.082862
601,0.805739,-1.312952,-0.185417,0.183917,0.966942,-0.176583,0.836819,0.924148,0.077865,0.137326,-0.185005,0.016717
602,0.774948,-1.299482,-0.231812,0.187492,0.96342,-0.191452,0.938124,0.404039,0.050323,0.372506,-0.109721,-0.069092
603,0.728892,-1.283773,-0.277973,0.188538,0.959091,-0.211146,1.098844,-0.339233,0.104741,0.477432,-0.125076,-0.096959
604,0.664515,-1.260124,-0.330114,0.188502,0.952128,-0.240631,1.621553,-0.995421,0.178668,0.577214,-0.074015,0.024048
605,0.575454,-1.224852,-0.392682,0.184524,0.940756,-0.284456,2.261422,-1.882319,0.303915,0.266633,0.714502,-0.188597
606,0.473821,-1.174807,-0.442086,0.175993,0.922615,-0.343212,2.695687,-3.329175,0.512832,0.025545,0.866233,-0.064366
607,0.366959,-1.121772,-0.478652,0.155736,0.900871,-0.405174,2.738585,-3.707795,0.321337,-0.24561,0.898247,0.351509
608,0.274292,-1.069003,-0.504822,0.130283,0.876722,-0.463007,2.634461,-3.462066,0.232701,-0.145175,0.893664,0.260904
609,0.192646,-1.022452,-0.519094,0.0998,0.853389,-0.511623,2.12772,-2.991533,0.218944,-0.351264,0.091756,0.333248
610,0.160475,-0.98739,-0.515696,0.08802,0.834591,-0.543785,1.40942,-1.13542,0.474331,-0.231636,-0.1049,0.322959
611,0.154318,-0.965648,-0.506091,0.08744,0.822418,-0.562117,0.896328,-0.450607,0.426072,-0.042213,-0.133255,0.282789
612,0.170112,-0.952019,-0.489591,0.098195,0.814588,-0.57166,0.341264,0.454717,0.680613,0.073756,-0.042524,0.293859
613,0.210061,-0.952871,-0.4613,0.120803,0.815082,-0.566603,-0.516036,0.985332,0.864088,-0.098235,-0.096027,0.265746
614,0.263403,-0.966417,-0.420664,0.147953,0.822855,-0.548645,-1.162278,0.967786,1.016626,-0.200748,-0.124567,0.220916
615,0.322136,-0.990392,-0.37243,0.173605,0.836241,-0.520147,-1.757151,0.922509,0.86725,-0.26911,-0.236021,0.152258
616,0.382524,-1.024048,-0.321396,0.194061,0.85422,-0.482327,-2.17668,0.820724,0.578167,-0.239333,-0.370287,0.220913
617,0.44065,-1.063056,-0.273875,0.207375,0.873846,-0.439749,-2.31299,0.894414,0.117785,-0.183525,-0.369893,0.256964
618,0.484488,-1.108484,-0.243385,0.20773,0.895023,-0.394677,-2.361136,0.781666,-0.681437,-0.101224,-0.403233,0.181222
619,0.507519,-1.160117,-0.233194,0.194023,0.91685,-0.348897,-2.395698,0.643262,-1.203862,-0.043801,-0.32136,0.007787
620,0.521765,-1.210917,-0.22989,0.175512,0.935939,-0.305287,-2.036369,0.476417,-1.083634,-0.019064,0.264973,-0.332774
621,0.540945,-1.248004,-0.213051,0.163338,0.948353,-0.271906,-1.726601,-0.008662,-0.459143,-0.122277,0.489894,-0.260076
622,0.603119,-1.280626,-0.139681,0.162274,0.958195,-0.235615,-2.116206,-0.623268,0.395637,-0.081784,0.135509,-0.069149
623,0.727514,-1.30488,0.001213,0.174743,0.964852,-0.196241,-2.008412,-0.389018,0.861835,-0.131286,-0.000237,-0.171893
624,0.8455,-1.315817,0.124522,0.188717,0.967669,-0.167294,-1.229711,0.09696,0.666894,-0.228314,-0.031542,-0.247714
625,0.954609,-1.318317,0.225893,0.203836,0.968296,-0.14435,-1.072674,0.930218,0.743835,-0.298715,-0.103275,-0.012678
626,1.093618,-1.316982,0.33641,0.223018,0.967962,-0.115307,-1.144963,1.944584,0.750576,-0.232189,-0.095861,0.137982
627,1.200581,-1.314182,0.401692,0.236579,0.967255,-0.091819,-0.19684,2.334184,0.268522,-0.173362,-0.121491,0.446296
628,1.197191,-1.309659,0.354297,0.240337,0.966097,-0.094216,0.939649,1.762935,-0.11805,0.020893,0.075911,-0.019553
629,1.170651,-1.31247,0.319566,0.23525,0.966819,-0.099502,-0.283311,-0.730773,-0.415021,0.466364,0.22239,-0.075089
630,1.168113,-1.322575,0.353966,0.225995,0.969351,-0.096265,-0.290501,-2.031589,-0.114303,0.778003,0.256678,-0.057178
631,1.144549,-1.318765,0.352388,0.227026,0.968408,-0.10309,-0.046093,-0.366065,0.34781,0.290582,0.506934,-0.001433
632,1.211803,-1.311816,0.41396,0.239736,0.966652,-0.089962,-0.703714,0.580872,0.67422,0.231242,1.455986,-1.149815
633,1.218039,-1.29913,0.412712,0.251782,0.963325,-0.092695,1.040677,0.393409,0.487956,-0.001645,0.279549,0.177931
634,1.161082,-1.284046,0.314889,0.259399,0.959168,-0.112655,1.432575,2.558791,-0.036578,-0.12889,-0.26915,0.556899
635,1.1329,-1.276395,0.246748,0.262761,0.956976,-0.123028,0.785154,1.204831,-0.009455,-0.08202,-0.305548,0.15884
636,1.127749,-1.274523,0.236763,0.263742,0.956431,-0.125148,-0.19012,-0.260741,-0.025072,-0.143228,-0.309519,0.095103
637,1.153269,-1.283698,0.276056,0.258816,0.959069,-0.114813,-0.974002,-0.656596,-0.251162,-0.207745,-0.151223,0.046454
638,1.197427,-1.2942,0.334732,0.254237,0.96199,-0.099596,-0.630283,-0.614018,-0.008466,0.047261,-0.015213,-0.316404
639,1.197234,-1.292307,0.335152,0.255913,0.961472,-0.10031,0.237799,0.521614,0.026053,0.066032,-0.131363,-0.426103
640,1.19573,-1.291848,0.305182,0.256172,0.961346,-0.100856,0.539863,1.761405,-0.188139,-0.097863,-0.278744,-0.262731
641,1.185634,-1.291635,0.251809,0.255331,0.961287,-0.103514,0.740256,2.077569,-0.305717,-0.039541,-0.309538,0.030211
642,1.157083,-1.291885,0.189451,0.252052,0.961356,-0.110664,0.78716,1.110172,-0.314831,0.171669,-0.204611,-0.232979
643,1.114906,-1.287059,0.145409,0.251325,0.960016,-0.123235,0.569357,-0.598569,0.149445,0.374239,-0.09054,-0.263026
644,1.066983,-1.276709,0.114174,0.253823,0.957067,-0.139923,0.69432,-0.962588,0.230901,0.392845,-0.262472,-0.003799
645,1.005862,-1.267103,0.073667,0.252557,0.954238,-0.160082,0.822061,-1.238086,0.018502,0.383658,-0.309372,-0.000487
646,0.919244,-1.258176,0.013061,0.244526,0.951531,-0.18649,1.109481,-1.64602,-0.247091,0.348476,-0.125786,-0.070743
647,0.810654,-1.2451,-0.056945,0.231874,0.947428,-0.220448,1.367372,-2.316345,-0.137609,0.251661,0.286535,-0.056316
648,0.701387,-1.221219,-0.124399,0.220993,0.939518,-0.261635,1.803388,-2.226918,0.030897,0.18309,0.375851,0.026406
649,0.589427,-1.188319,-0.194194,0.207457,0.927743,-0.310227,2.196437,-2.439987,-0.039792,-0.064451,0.509833,0.070267
650,0.481364,-1.151656,-0.251454,0.188417,0.913439,-0.360714,2.05915,-3.031979,0.003805,-0.258226,0.834074,0.176601
651,0.388842,-1.115337,-0.286941,0.166759,0.898059,-0.407025,1.915642,-2.798656,0.121076,-0.300334,0.78323,0.31271
652,0.329191,-1.082759,-0.305423,0.151579,0.883255,-0.443705,1.504532,-1.842052,0.211978,-0.35771,0.301941,0.390742
653,0.292652,-1.056853,-0.310192,0.141824,0.870813,-0.470702,1.107042,-1.612145,0.338162,-0.160058,-0.114129,0.284957
654,0.268644,-1.038834,-0.307389,0.134627,0.861813,-0.489022,0.675353,-0.89656,0.24984,0.043321,0.29903,-0.018805
655,0.27218,-1.031983,-0.302041,0.13794,0.858318,-0.494219,0.057488,0.309157,0.296322,-0.052887,0.294498,-0.037977
656,0.297622,-1.03435,-0.279831,0.149872,0.85953,-0.488606,-0.447888,0.240337,0.628302,-0.112671,0.078061,0.101292
657,0.335697,-1.043326,-0.244026,0.165814,0.864083,-0.475243,-0.864241,0.528969,0.737187,-0.217831,-0.232384,0.33712
658,0.383244,-1.057997,-0.20608,0.183453,0.871375,-0.455017,-1.072356,0.774501,0.521774,-0.234448,-0.383597,0.415573
659,0.426302,-1.076674,-0.175685,0.196104,0.880385,-0.431803,-1.214412,0.890283,0.195894,-0.224593,-0.388167,0.39625
660,0.47121,-1.10142,-0.147841,0.205336,0.891851,-0.403023,-1.496318,1.069072,-0.047723,-0.193907,-0.344548,0.303185
661,0.516064,-1.130115,-0.122027,0.210481,0.904461,-0.370992,-1.520128,1.031609,-0.248667,-0.186739,-0.270687,0.090688
662,0.552873,-1.159767,-0.099999,0.209811,0.91671,-0.340014,-1.522894,0.710631,-0.429872,-0.161456,-0.231667,-0.085829
663,0.588995,-1.193576,-0.071979,0.204611,0.929692,-0.306257,-1.851715,0.4093,-0.446738,-0.120855,-0.170323,-0.146547
664,0.632053,-1.229375,-0.028565,0.197804,0.94228,-0.270127,-1.863083,-0.15552,-0.380932,-0.032994,0.171902,-0.299621
665,0.661114,-1.26066,0.021414,0.18737,0.952292,-0.240869,-1.669538,-1.346654,-0.243458,-0.039222,0.122384,-0.279914
666,0.699751,-1.28607,0.093993,0.180886,0.959739,-0.214864,-1.671166,-1.488044,0.217116,-0.011804,0.031427,-0.246943
667,0.780767,-1.304828,0.197926,0.184974,0.964838,-0.186696,-1.608325,-0.539085,0.479121,0.012093,-0.084574,-0.167156
668,0.898768,-1.31687,0.317025,0.196557,0.967934,-0.156373,-1.494315,0.543236,0.646241,-0.12832,-0.018623,-0.106597
669,1.046929,-1.319703,0.447232,0.21511,0.968641,-0.124271,-1.403422,1.30681,0.890521,-0.255241,0.024095,-0.231228
670,1.188705,-1.314331,0.579953,0.235335,0.967293,-0.094567,-1.295475,0.001164,0.967723,-0.14598,-0.181068,-0.039268
671,1.234104,-1.301761,0.626663,0.250843,0.964028,-0.0878,0.435684,0.742257,0.617807,-0.077442,-0.200066,0.769532
672,1.193483,-1.290453,0.536979,0.257191,0.960961,-0.101925,1.569108,2.699264,-0.121335,-0.024281,-0.098946,0.67448
673,1.160824,-1.2891,0.469759,0.254919,0.960585,-0.110787,-0.314347,0.403945,-0.440266,0.443873,0.893648,-1.075507
674,1.175763,-1.30315,0.543586,0.244062,0.964396,-0.101762,0.247506,-4.031176,-0.034347,0.557025,0.462118,0.256821
675,1.069615,-1.294449,0.466468,0.239259,0.962059,-0.131075,0.578519,0.222816,0.124883,0.321304,0.333947,0.475038
676,1.125111,-1.286232,0.500454,0.253286,0.959784,-0.121006,-0.460174,1.331117,0.654592,0.012675,0.131906,0.22591
677,1.210673,-1.281385,0.555751,0.267051,0.958412,-0.100556,-0.779529,1.752801,0.440313,-0.026862,0.416359,-0.135039
678,1.310873,-1.278428,0.62761,0.278507,0.957564,-0.074066,-0.831565,1.410711,0.519436,0.011105,0.376741,-0.246964
679,1.367154,-1.273236,0.659021,0.287097,0.956055,-0.059287,-0.17414,1.330001,0.153459,-0.07442,0.121567,-0.226663
680,1.381586,-1.277125,0.651251,0.284268,0.957188,-0.054438,0.242219,0.887421,-0.350471,-0.206128,-0.112827,-0.163992
681,1.361734,-1.283017,0.615434,0.277608,0.958877,-0.058898,0.530691,0.709709,-0.381344,-0.224355,-0.137725,-0.215257
682,1.336235,-1.28779,0.567806,0.271562,0.96022,-0.064892,0.683367,1.20667,-0.38305,-0.067506,-0.179886,-0.305454
683,1.300472,-1.291027,0.504085,0.266072,0.961119,-0.073731,0.830083,1.316998,-0.394986,-0.081303,-0.32321,-0.075683
684,1.271096,-1.295572,0.441803,0.259614,0.962364,-0.080223,0.711225,1.621314,-0.469913,-0.098832,-0.419441,0.003395
685,1.245762,-1.297936,0.386213,0.255343,0.963004,-0.086047,0.644972,1.145386,-0.20912,-0.007494,-0.444663,0.049807
686,1.218042,-1.291577,0.347515,0.258602,0.961271,-0.095205,0.610995,0.047213,0.32082,0.190617,-0.160871,-0.175272
687,1.169534,-1.275653,0.305726,0.267742,0.956761,-0.113598,1.08177,-0.528802,0.636767,0.443836,-0.030338,-0.25391
688,1.09534,-1.247874,0.231364,0.282116,0.948312,-0.145247,1.942713,0.072729,0.776606,0.606556,-0.063577,-0.312105
689,0.9811,-1.212976,0.120398,0.291062,0.936663,-0.194754,2.862671,-1.183868,0.405423,0.238921,0.044844,-0.376016
690,0.812289,-1.169404,-0.016232,0.283581,0.920518,-0.268725,3.387225,-2.515117,-0.135068,-0.220303,0.498214,-0.04968
691,0.628706,-1.131025,-0.137359,0.250363,0.904849,-0.344315,2.96133,-4.36685,-0.759512,-0.096768,0.511411,0.501603
692,0.450014,-1.087171,-0.234598,0.202256,0.885315,-0.418686,2.852064,-4.368988,-0.663064,-0.079209,0.558975,0.397247
693,0.342814,-1.048516,-0.282579,0.167681,0.866684,-0.46982,1.880269,-2.593096,-0.107038,-0.037753,0.56131,0.393098
694,0.283731,-1.01717,-0.306618,0.147182,0.850624,-0.504744,1.632561,-1.444944,-0.104899,-0.352596,0.254601,0.329054
695,0.24531,-0.98855,-0.319845,0.133545,0.835229,-0.53343,1.330692,-1.232703,0.093546,-0.006348,-0.186166,0.393553
696,0.238592,-0.971072,-0.32742,0.133389,0.825491,-0.548418,0.567308,0.81928,-0.108832,-0.020474,-0.203452,0.335817
697,0.272195,-0.973119,-0.331043,0.151284,0.826645,-0.541998,-0.449783,2.231923,-0.048312,-0.18026,-0.250168,0.117544
698,0.321671,-0.993462,-0.320392,0.172551,0.83792,-0.517789,-1.3848,1.719364,0.003498,-0.008427,-0.405624,-0.001345
699,0.371466,-1.028968,-0.292977,0.187187,0.856767,-0.480521,-2.248682,1.195637,0.122048,-0.049294,-0.421479,-0.016
700,0.434391,-1.078435,-0.246572,0.198938,0.881219,-0.428794,-2.967449,1.153852,0.005986,-0.127847,-0.402597,0.135872
701,0.511324,-1.137289,-0.19407,0.205539,0.907498,-0.366316,-3.188572,1.771333,-0.505891,-0.071903,-0.252621,0.174666
702,0.599788,-1.197509,-0.142973,0.205838,0.931134,-0.301009,-2.961813,2.096572,-0.784598,0.006183,-0.13023,0.117141
703,0.69616,-1.243688,-0.074683,0.20603,0.946975,-0.246522,-2.260222,1.031359,-0.080851,0.054514,0.493836,-0.169905
704,0.81349,-1.262343,0.060327,0.220592,0.952804,-0.208534,-2.231509,-1.341606,1.373036,-0.040523,0.13826,-0.162362
705,0.958971,-1.274543,0.248895,0.238956,0.956437,-0.167661,-2.685004,-1.882155,1.081073,-0.158924,0.051162,-0.219546
706,1.078495,-1.291496,0.420822,0.242915,0.961249,-0.130287,-2.317165,-2.499135,0.276857,-0.427913,-0.128943,-0.253243
707,1.138257,-1.308784,0.541258,0.235136,0.965871,-0.108562,-1.507224,-2.98349,-0.244566,-0.595152,-0.237401,-0.159032
708,1.127585,-1.322997,0.58552,0.221537,0.969455,-0.105166,-0.341915,-2.153785,-0.419088,-0.429606,-0.305148,0.166567
709,1.09573,-1.323494,0.557169,0.217647,0.969576,-0.111948,0.58472,1.334917,-0.13828,-0.081782,-0.07445,0.549082
710,1.074332,-1.317437,0.458345,0.220362,0.968076,-0.119374,1.622469,4.660931,-0.294458,0.004522,0.115283,0.280599
711,1.069893,-1.307969,0.365811,0.22786,0.965659,-0.124748,0.757205,3.18034,-0.112734,0.805496,0.901131,-0.127968
712,1.002104,-1.295671,0.279803,0.228879,0.962391,-0.146282,1.621087,-0.441435,-0.103127,0.509799,0.200496,0.599194
713,0.923228,-1.283552,0.231559,0.225929,0.959028,-0.170887,0.17381,-1.992544,0.368383,0.178078,0.147554,0.11269
714,0.949833,-1.282355,0.295428,0.231329,0.958688,-0.165484,-0.806021,-1.325552,0.652309,0.344523,0.867072,-0.818723
715,0.964859,-1.27092,0.30439,0.242786,0.955373,-0.168224,0.625824,1.683394,0.325169,-0.213962,0.169154,0.298335
716,1.008728,-1.264414,0.283647,0.255183,0.953431,-0.160723,0.379382,3.344918,0.083105,-0.226359,0.171096,0.290835
717,1.031778,-1.261168,0.263794,0.261474,0.952447,-0.156387,0.260833,1.225144,-0.111559,-0.17128,-0.246087,-0.037293
718,1.034471,-1.266767,0.262112,0.257305,0.954138,-0.152954,-0.364489,-0.185507,-0.311741,-0.045483,-0.258337,-0.070709
719,1.035901,-1.272356,0.27614,0.252932,0.955796,-0.149865,-0.156138,-0.749974,0.0077,0.123502,-0.046525,-0.229438
720,1.030029,-1.27336,0.277922,0.251225,0.956091,-0.150853,-0.031345,0.069283,-0.115324,0.018383,-0.110022,-0.021907
721,1.033092,-1.278331,0.264652,0.247599,0.957536,-0.147647,0.075515,1.00008,-0.410599,-0.171351,-0.213624,-0.250821
722,1.027971,-1.284339,0.243028,0.241908,0.959251,-0.145938,0.141107,0.647213,-0.402211,-0.101817,-0.221031,-0.220456
723,1.008667,-1.286615,0.210614,0.237198,0.959891,-0.149416,0.476536,0.64972,-0.254593,-0.015107,-0.191718,-0.137678
724,0.991162,-1.279038,0.171793,0.240626,0.95774,-0.157525,0.773229,1.147449,0.225405,0.135427,-0.117911,-0.150367
725,0.977959,-1.260301,0.137312,0.253367,0.952182,-0.170687,1.067739,0.810458,0.593225,0.186208,-0.189441,-0.161955
726,0.93765,-1.235478,0.087578,0.265263,0.944305,-0.194688,1.575588,0.011156,0.50593,0.21046,-0.232605,-0.079726
727,0.839128,-1.202096,0.000119,0.268144,0.932796,-0.240773,2.667351,-1.411413,0.199185,0.123733,0.008884,-0.109614
728,0.694371,-1.1614,-0.120557,0.254704,0.917361,-0.305873,3.142114,-1.644581,-0.509704,-0.10326,0.181577,0.095164
729,0.546226,-1.120274,-0.233084,0.226185,0.90022,-0.372061,2.903543,-2.993497,-0.766015,-0.112569,0.3017,0.159598
730,0.397248,-1.077541,-0.311002,0.183182,0.880796,-0.436612,2.61455,-4.085615,-0.463259,-0.171737,0.687548,0.32864
731,0.297082,-1.034646,-0.357585,0.149533,0.859681,-0.488442,2.194106,-2.348135,-0.369078,-0.072705,0.402541,0.374414
732,0.22724,-0.998798,-0.391522,0.12195,0.840821,-0.527387,1.87818,-1.856125,-0.324913,-0.045122,0.421401,0.413358
733,0.185279,-0.969913,-0.408423,0.104152,0.824836,-0.555686,1.219813,-0.923752,-0.085016,-0.225886,0.127343,0.026817
734,0.191597,-0.952847,-0.411136,0.110325,0.815068,-0.568755,0.625587,1.226,0.156975,-0.049992,-0.001057,-0.174714
735,0.221766,-0.950309,-0.402979,0.127886,0.813595,-0.567184,-0.288109,1.062312,0.324922,-0.067553,0.000416,-0.176285
736,0.262956,-0.966566,-0.381168,0.147675,0.82294,-0.54859,-1.309823,1.257167,0.433972,-0.045288,-0.311816,0.187949
737,0.317798,-0.99759,-0.350337,0.169461,0.840167,-0.515162,-1.954625,1.525142,0.312689,-0.150144,-0.322482,0.441202
738,0.38104,-1.037052,-0.315355,0.189196,0.860908,-0.47226,-2.236359,1.777293,0.104231,-0.213091,-0.372215,0.425125
739,0.447314,-1.079442,-0.284461,0.204077,0.881695,-0.425386,-2.24471,2.083789,-0.344874,-0.240989,-0.468304,0.315019
740,0.511374,-1.126456,-0.261992,0.210356,0.902894,-0.374857,-2.374278,2.249005,-0.789302,-0.139753,-0.411012,0.10827
741,0.574451,-1.176407,-0.237954,0.208777,0.923232,-0.322552,-2.356896,1.787905,-0.845206,-0.029547,-0.039381,-0.271946
742,0.631645,-1.217011,-0.193543,0.204555,0.938068,-0.279585,-1.973756,0.082745,-0.199411,0.026799,0.551312,-0.401216
743,0.696967,-1.245598,-0.09413,0.205065,0.947587,-0.244966,-2.372586,-2.192153,0.811256,0.074125,0.525374,-0.329375
744,0.810334,-1.270739,0.074944,0.214126,0.955319,-0.203704,-2.761084,-2.271466,1.001992,-0.037444,0.038745,-0.106309
745,0.927684,-1.291862,0.235697,0.220299,0.961349,-0.165091,-2.138868,-1.545065,0.492661,-0.296013,-0.046814,-0.260004
746,1.014196,-1.302804,0.347478,0.224793,0.964305,-0.139872,-1.212163,-0.801088,0.384949,-0.476701,-0.310557,-0.315466
747,1.070536,-1.303232,0.414253,0.231951,0.964418,-0.126794,-0.48682,-0.04332,0.465956,-0.393785,-0.331468,0.012872
748,1.107209,-1.296004,0.412181,0.242673,0.962481,-0.121318,0.666957,3.502528,0.112686,-0.188779,-0.182086,0.799556
749,1.134374,-1.287646,0.333396,0.253161,0.96018,-0.118079,1.32507,5.581762,-0.14496,-0.079455,0.098246,0.287039
750,1.134969,-1.27723,0.241245,0.262285,0.957218,-0.122145,1.142596,3.360651,0.015777,0.158522,0.408474,-0.453371
751,1.1759,-1.283801,0.280684,0.261251,0.959099,-0.108887,-1.148604,-1.677994,-0.15614,0.576304,0.717827,0.271469
752,1.141154,-1.290597,0.316472,0.251378,0.961,-0.115178,-0.439631,-3.781802,-0.001144,0.577281,0.823896,-0.317195
753,1.15412,-1.28811,0.354875,0.255037,0.96031,-0.112877,-0.215012,0.8516,0.473051,0.44731,1.166064,-0.52079
754,1.186504,-1.276409,0.331789,0.268958,0.95698,-0.108766,0.984536,3.191488,0.363063,-0.274802,-0.188975,0.290941
755,1.187342,-1.265848,0.26802,0.278408,0.953862,-0.112316,0.937518,2.814928,0.00109,-0.218303,-0.27094,0.16708
756,1.19393,-1.263856,0.240383,0.280907,0.953263,-0.111179,0.125681,0.838845,-0.094984,-0.118706,-0.306809,-0.025647
757,1.198707,-1.267973,0.25113,0.277777,0.954498,-0.108407,-0.380499,-0.713537,-0.120031,-0.055548,-0.102188,-0.054892
758,1.213067,-1.272312,0.281636,0.275423,0.955783,-0.102956,-0.474522,-0.612538,0.011642,-0.002275,-0.026538,-0.094111
759,1.22472,-1.271663,0.292258,0.277187,0.955592,-0.09995,0.080022,0.615543,0.109014,-0.034038,-0.214488,-0.090006
760,1.232055,-1.269449,0.274205,0.279907,0.954938,-0.098617,0.39066,1.421607,-0.072515,-0.123169,-0.288205,-0.388565
761,1.226061,-1.269238,0.236346,0.279501,0.954875,-0.100361,0.593404,1.523743,-0.21544,-0.094305,-0.297114,-0.092464
762,1.214507,-1.269039,0.192361,0.278501,0.954816,-0.103651,0.655918,1.455235,-0.187142,0.011217,-0.21655,0.019407
763,1.190079,-1.264197,0.147548,0.280176,0.953366,-0.112139,0.69185,0.488776,0.111314,0.190466,-0.160702,-0.20059
764,1.16015,-1.254525,0.118744,0.285138,0.950402,-0.124149,0.588862,-0.341702,0.357349,0.311298,-0.174309,-0.040585
765,1.127398,-1.24256,0.091887,0.291173,0.946612,-0.138289,0.679636,-0.350426,0.329153,0.463511,-0.206653,-0.069612
766,1.082376,-1.231563,0.050159,0.293831,0.94301,-0.15613,0.973322,-0.271719,0.105708,0.555474,-0.171556,-0.265394
767,1.009772,-1.219537,-0.010921,0.291314,0.93894,-0.183055,1.362318,-1.171786,0.012371,0.350929,0.027002,-0.135747
768,0.907108,-1.197317,-0.082125,0.287388,0.931064,-0.224747,1.835678,-2.174775,0.275472,0.12466,0.248532,-0.109222
769,0.781436,-1.163841,-0.157461,0.278758,0.91833,-0.280976,2.399795,-3.189795,0.272167,-0.087428,0.42043,-0.10411
770,0.638181,-1.122977,-0.233867,0.257944,0.901394,-0.347764,2.630094,-3.906687,0.063187,-0.167749,0.676808,0.092042
771,0.505762,-1.078974,-0.292391,0.228778,0.881474,-0.4131,2.47515,-3.902124,0.121919,-0.212863,0.789913,0.286223
772,0.404867,-1.038561,-0.322482,0.199883,0.861675,-0.466424,1.931184,-3.715488,0.273841,-0.087227,0.302906,0.518197
773,0.328111,-1.002052,-0.331653,0.173555,0.842578,-0.509833,1.733889,-3.238451,0.496178,-0.135255,-0.195086,0.587317
774,0.287809,-0.97151,-0.331671,0.160105,0.825738,-0.540844,1.236093,-0.900028,0.359381,-0.285517,0.141318,-0.02245
775,0.285169,-0.954392,-0.333685,0.16263,0.815962,-0.554749,0.619603,-0.059976,0.207652,0.042372,0.068422,0.018128
776,0.29338,-0.947445,-0.324186,0.168815,0.811927,-0.558808,-0.051132,0.26626,0.456786,-0.165854,-0.331306,0.266602
777,0.325383,-0.955449,-0.3022,0.184525,0.816573,-0.546944,-0.809837,0.962333,0.469822,-0.205322,-0.375259,0.356316
778,0.368735,-0.971818,-0.278612,0.20321,0.825912,-0.525894,-1.11385,1.247564,0.266507,-0.200173,-0.310775,0.345947
779,0.410042,-0.99648,-0.258186,0.216566,0.839564,-0.498217,-1.52336,1.174764,-0.086637,-0.23892,-0.296488,0.332186
780,0.447012,-1.032538,-0.241017,0.221596,0.858603,-0.46226,-1.982644,1.125808,-0.498911,-0.284142,-0.293341,0.302439
781,0.481315,-1.077078,-0.230736,0.219385,0.880577,-0.420049,-2.142992,1.367666,-0.901992,-0.208216,-0.269127,0.131552
782,0.517621,-1.124629,-0.222252,0.21351,0.902107,-0.374969,-2.213777,1.457657,-0.967764,-0.025354,-0.027519,-0.276795
783,0.564047,-1.173502,-0.196096,0.206844,0.922111,-0.326973,-2.455065,0.78292,-0.654527,0.02364,0.05201,-0.314216
784,0.620635,-1.215037,-0.135935,0.202542,0.937382,-0.283329,-2.221932,-0.531001,0.050607,0.141223,0.220622,-0.194088
785,0.689012,-1.245812,-0.031506,0.202982,0.947656,-0.246435,-2.384561,-1.729019,0.6193,0.001791,0.055854,0.150732
786,0.802183,-1.271687,0.111747,0.211809,0.955599,-0.204815,-2.396796,-0.744186,0.766436,-0.093126,0.041685,0.094174
787,0.930226,-1.288712,0.252587,0.223148,0.960477,-0.166341,-1.871028,-0.274378,0.571885,-0.329364,0.00545,-0.282633
788,1.026167,-1.299249,0.368562,0.229385,0.963357,-0.138948,-1.485978,-1.217646,0.363207,-0.557022,-0.096826,-0.345351
789,1.079676,-1.309608,0.459053,0.227674,0.966084,-0.121766,-1.13015,-1.69679,-0.00223,-0.543363,-0.207203,-0.062087
790,1.104695,-1.315883,0.495039,0.225227,0.967685,-0.113305,-0.079279,0.60614,-0.065139,-0.331856,-0.308353,0.703546
791,1.103606,-1.310502,0.438712,0.22975,0.966314,-0.115894,1.156873,3.56136,-0.107293,-0.07762,0.011545,0.426472
792,1.094723,-1.301501,0.345519,0.236434,0.963959,-0.121912,1.178229,3.95896,-0.188838,0.14998,0.251022,-0.299428
793,1.14616,-1.3116,0.366303,0.233505,0.966596,-0.105578,-1.18501,-0.034328,-0.378621,0.610642,0.367281,0.11275
794,1.139662,-1.314447,0.392649,0.230313,0.967322,-0.105943,0.009119,-2.237438,0.213656,0.685077,2.33558,-2.133803
795,1.13562,-1.307621,0.422374,0.235866,0.965569,-0.109654,0.59217,-0.490049,0.422724,0.620992,1.414787,-1.071117
796,1.049512,-1.288636,0.281436,0.241419,0.960456,-0.138639,2.270428,3.894426,-0.182194,-0.087977,-0.284629,1.117201
797,1.028745,-1.270769,0.191636,0.253153,0.955328,-0.152454,0.915527,2.284247,0.329561,0.03771,-0.091772,0.170093
798,1.061686,-1.267599,0.214943,0.26068,0.954387,-0.145509,-0.669154,-0.298322,0.19041,-0.056868,-0.033443,0.24994
799,1.107512,-1.278713,0.279549,0.257565,0.957646,-0.128666,-1.385136,-0.904832,-0.162055,-0.096189,-0.017201,-0.114056
800,1.199669,-1.297743,0.391949,0.251279,0.962952,-0.097788,-1.843383,-0.779705,-0.153665,0.045169,-0.054901,-0.277243
801,1.235281,-1.295742,0.447033,0.256419,0.962411,-0.089413,-0.07984,-0.643458,0.474843,0.0985,-0.018654,-0.260288
802,1.253584,-1.293197,0.453488,0.26034,0.961716,-0.085469,-0.077888,1.362556,-0.08752,-0.191218,-0.332672,-0.18777
803,1.268335,-1.297463,0.429573,0.257653,0.962876,-0.080397,0.410322,1.93617,-0.367923,-0.203378,-0.285356,-0.199922
804,1.266149,-1.302463,0.393352,0.252881,0.964214,-0.079515,0.382445,1.418592,-0.380274,0.053714,-0.195949,-0.203673
805,1.248203,-1.3054,0.351048,0.248727,0.964989,-0.083142,0.531696,1.053205,-0.244167,0.054832,-0.337883,-0.010898
806,1.232305,-1.303895,0.313523,0.248743,0.964593,-0.087568,0.456486,0.955492,0.013943,0.104925,-0.310036,-0.093875
807,1.215738,-1.297273,0.285167,0.253243,0.962825,-0.093895,0.486187,0.221457,0.269328,0.318321,-0.148799,-0.238579
808,1.184658,-1.287496,0.255951,0.258912,0.960138,-0.10526,0.616009,-0.310641,0.288008,0.460296,-0.080316,-0.221934
809,1.132943,-1.278452,0.213728,0.26098,0.957571,-0.122181,0.815548,-0.721805,0.107263,0.450018,-0.204656,-0.149365
810,1.053602,-1.267553,0.150736,0.259533,0.954373,-0.147634,1.225881,-1.120311,0.041205,0.317996,-0.176129,-0.159877
811,0.941347,-1.249425,0.065337,0.255309,0.948803,-0.185934,1.810987,-1.950148,0.063447,0.172151,0.051228,-0.138345
812,0.798634,-1.219087,-0.030763,0.246785,0.938785,-0.240337,2.445949,-2.784659,0.145863,-0.02979,0.329251,-0.021915
813,0.643207,-1.177815,-0.136958,0.229664,0.923772,-0.306406,2.936314,-3.026618,-0.243507,-0.144612,0.630321,-0.032507
814,0.488234,-1.135073,-0.224877,0.197969,0.906565,-0.372738,2.681812,-3.783592,-0.398139,-0.204515,0.794775,0.335476
815,0.366722,-1.088389,-0.289499,0.166334,0.885881,-0.433054,2.670171,-2.693192,-0.27784,-0.180479,0.627181,0.336756
816,0.28649,-1.047365,-0.323825,0.141249,0.866109,-0.47947,1.948498,-2.492685,0.022374,-0.151518,0.192164,0.32348
817,0.235602,-1.01273,-0.32986,0.123609,0.848281,-0.514907,1.557935,-2.215541,0.317324,0.003222,0.101579,0.304184
818,0.206479,-0.987073,-0.332997,0.112989,0.834417,-0.539418,1.067644,-0.594022,0.167612,-0.026868,0.1076,0.119893
819,0.215598,-0.974304,-0.329142,0.120173,0.827311,-0.54873,0.333198,0.661709,0.328583,-0.132823,0.01856,-0.047294
820,0.244708,-0.974179,-0.309783,0.136118,0.827241,-0.5451,-0.427908,0.643932,0.638415,-0.140345,-0.238862,0.025798
821,0.289306,-0.990195,-0.275419,0.156485,0.836133,-0.525722,-1.356354,0.898279,0.707448,-0.148886,-0.305478,0.268474
822,0.344105,-1.019384,-0.234198,0.176733,0.851785,-0.493169,-1.909426,1.075731,0.500395,-0.152121,-0.375574,0.417424
823,0.406162,-1.055571,-0.193235,0.194666,0.870182,-0.452633,-2.115036,1.532616,0.17577,-0.153605,-0.475605,0.404964
824,0.471726,-1.095721,-0.158199,0.20785,0.889258,-0.407437,-2.235542,1.795883,-0.287949,-0.128947,-0.536002,0.337582
825,0.532613,-1.143318,-0.131999,0.210508,0.910014,-0.357136,-2.425586,1.903255,-0.866254,-0.129682,-0.502116,0.249959
826,0.58816,-1.199583,-0.111016,0.201251,0.931888,-0.301774,-2.697941,1.699052,-1.244977,-0.089114,-0.293445,0.023133
827,0.654163,-1.257123,-0.060927,0.187738,0.951207,-0.244834,-2.820586,0.192814,-0.622198,-0.101266,0.844753,-0.092125
828,0.74472,-1.292543,0.068904,0.186145,0.961537,-0.201941,-2.499346,-2.632757,0.810811,-0.080768,0.607189,-0.11297
829,0.864618,-1.315647,0.258773,0.192004,0.967625,-0.163761,-2.625858,-3.323366,0.731764,-0.234011,0.030818,-0.462796
830,0.969765,-1.337709,0.438854,0.19047,0.972958,-0.130596,-2.206186,-3.382944,0.349144,-0.415339,-0.145352,-0.379765
831,1.04901,-1.350135,0.562898,0.189711,0.975753,-0.109072,-1.009666,-1.08427,0.159071,-0.4066,-0.191192,-0.161894
832,1.094412,-1.350996,0.593139,0.193719,0.975941,-0.099963,0.073213,1.9344,0.099742,-0.326562,-0.258686,0.227344
833,1.122778,-1.344035,0.550398,0.202595,0.9744,-0.09737,0.845427,4.241304,0.08402,0.000881,-0.078632,0.445774
834,1.128898,-1.333611,0.462099,0.212359,0.972003,-0.100467,1.266921,4.392581,-0.016847,-0.020708,0.126645,0.313083
835,1.124757,-1.329731,0.393555,0.215343,0.971084,-0.102972,-0.195651,1.941475,-0.370027,0.529469,1.029419,-0.961938
836,1.119623,-1.339643,0.407069,0.206137,0.973403,-0.099874,0.512028,-2.162686,-0.271162,0.900446,0.808473,-0.017939
837,1.036909,-1.343724,0.35694,0.193759,0.97433,-0.114541,0.103515,-1.28416,-0.368076,0.822842,0.393377,0.168999
838,1.025648,-1.346259,0.368718,0.190343,0.974897,-0.115434,-0.356377,-1.011954,0.156064,0.389018,0.168123,0.403062
839,1.087018,-1.347486,0.445014,0.196005,0.97517,-0.102985,-1.063378,-0.409832,0.441979,-0.031058,0.266148,0.13187
840,1.198496,-1.349543,0.562011,0.204375,0.975623,-0.079811,-1.190705,-0.049194,0.408581,-0.118284,0.16958,0.000969
841,1.299756,-1.350619,0.664377,0.210382,0.975859,-0.058461,-1.029055,0.145851,0.243885,-0.235513,-0.00363,-0.098735
842,1.39394,-1.352482,0.75175,0.213157,0.976264,-0.038096,-0.857159,0.656444,0.013696,-0.25286,-0.225776,0.006892
843,1.467247,-1.358971,0.806059,0.209067,0.977649,-0.021726,-0.476406,1.165977,-0.398768,-0.200781,-0.304614,-0.019488
844,1.52128,-1.370703,0.84167,0.198462,0.980048,-0.009835,-0.39558,0.664781,-0.605864,0.029916,-0.311469,-0.24842
845,1.547292,-1.383582,0.868675,0.18601,0.982526,-0.004373,-0.18844,-0.269039,-0.625653,0.103724,-0.311582,-0.168921
846,1.554263,-1.395221,0.876219,0.174585,0.984626,-0.002887,-0.026647,0.188201,-0.558879,0.104666,-0.320518,-0.192105
847,1.558176,-1.406072,0.873774,0.163897,0.986464,-0.002068,0.048628,0.335948,-0.54252,0.117002,-0.273817,-0.166617
848,1.54536,-1.416616,0.853812,0.153444,0.988138,-0.003904,0.190478,0.340719,-0.52658,0.171583,-0.210275,-0.181353
849,1.524843,-1.42619,0.827139,0.143871,0.989563,-0.006616,0.160771,0.238162,-0.428379,0.232991,-0.202743,-0.132697
850,1.513914,-1.432432,0.817633,0.137615,0.990443,-0.007836,-0.015143,-0.262645,-0.244164,0.48328,-0.076136,-0.158683
851,1.530236,-1.436169,0.841703,0.134023,0.990951,-0.005439,-0.275383,-0.40904,-0.172087,0.553461,-0.024124,-0.173028
852,1.572023,-1.441845,0.895556,0.128502,0.991697,0.000158,-0.373135,-0.743542,-0.355063,0.680611,0.011843,-0.278814
853,1.594525,-1.449288,0.944346,0.121078,0.992627,0.002874,-0.266563,-1.689995,-0.325332,0.658265,-0.226682,-0.336278
854,1.581891,-1.451075,0.977141,0.119329,0.992842,0.001324,-0.057329,-2.496429,0.030744,0.569102,-0.363844,-0.075665
855,1.454915,-1.447845,0.899697,0.121725,0.992451,-0.014169,0.832489,-2.573651,0.188746,0.459162,-0.312626,-0.182486
856,1.208194,-1.434418,0.716353,0.127038,0.990715,-0.048195,1.53751,-3.710891,0.52414,0.193915,0.265038,0.05439
857,0.974942,-1.406642,0.561666,0.135201,0.986557,-0.091675,1.723976,-3.989517,0.775764,0.067009,0.58313,0.347535
858,0.803639,-1.369605,0.463813,0.143823,0.979829,-0.13867,2.023467,-3.461607,0.898956,-0.037485,0.978072,0.278059
859,0.670378,-1.326943,0.372026,0.14998,0.970415,-0.18916,2.24901,-1.222366,0.429781,-0.173829,1.043135,0.173001
860,0.5917,-1.293937,0.281734,0.152441,0.961919,-0.22684,1.935074,1.23435,-0.143854,-0.171072,0.915187,0.042102
861,0.543764,-1.256224,0.212318,0.160062,0.950929,-0.264758,2.227226,0.187792,0.515416,0.065601,0.961348,0.039783
862,0.492869,-1.21756,0.194908,0.16367,0.938258,-0.304741,1.453148,-2.833545,0.707229,0.228053,0.38236,0.118157
863,0.447239,-1.195421,0.222156,0.158546,0.93037,-0.330543,0.430743,-3.657323,1.140182,0.354225,0.309986,0.121284
864,0.446969,-1.178704,0.293242,0.165158,0.924112,-0.344565,0.05776,-3.160048,1.781078,0.429554,0.302878,0.129966
865,0.462078,-1.164667,0.379537,0.176111,0.918657,-0.353609,-0.136365,-3.161453,1.767973,0.158819,-0.0114,0.303118
866,0.466733,-1.154943,0.451934,0.181767,0.914772,-0.360747,-0.30282,-3.115487,1.340531,-0.121464,-0.28202,0.45201
867,0.45623,-1.153355,0.510483,0.178608,0.914129,-0.36394,-0.518147,-3.192137,0.982339,-0.16579,-0.37937,0.503969
868,0.43454,-1.155701,0.555381,0.169769,0.915078,-0.365781,-0.498011,-3.087506,0.640514,-0.37677,-0.456658,0.534055
869,0.406356,-1.161308,0.587453,0.157363,0.917325,-0.365701,-0.535882,-2.740165,0.391977,-0.421172,-0.483609,0.504067
870,0.379978,-1.169426,0.613698,0.144896,0.920527,-0.362796,-0.591609,-2.427415,0.284365,-0.410643,-0.480448,0.489383
871,0.356112,-1.178736,0.637548,0.133203,0.924124,-0.358102,-0.615102,-2.202529,0.276435,-0.371484,-0.453604,0.343484
872,0.335468,-1.189769,0.660102,0.122418,0.928283,-0.351125,-0.654362,-2.089844,0.102965,-0.23927,-0.457107,0.143407
873,0.298968,-1.201484,0.666828,0.106313,0.932576,-0.344941,-0.622805,-2.154124,-0.099695,-0.156606,-0.357289,-0.04576
874,0.257671,-1.215325,0.672348,0.088683,0.937483,-0.33652,-0.681504,-2.390432,-0.094461,0.051698,-0.057218,-0.338727
875,0.213375,-1.227047,0.6752,0.071362,0.941498,-0.329353,-0.543505,-2.270688,-0.056263,0.205417,0.275437,-0.514382
876,0.178434,-1.235436,0.683504,0.058409,0.944292,-0.32386,-0.285266,-2.081619,0.123692,0.18181,0.465071,-0.765511
877,0.148678,-1.229622,0.696455,0.04956,0.942362,-0.330879,0.551291,-2.067335,0.354912,0.200623,0.337545,-0.691826
878,0.150283,-1.21488,0.728088,0.052166,0.937328,-0.3445,0.616332,-0.902941,0.818551,0.285862,0.161702,-0.361631
879,0.181505,-1.202859,0.778732,0.064924,0.933071,-0.353762,0.318139,-1.043384,1.033497,0.032931,-0.084652,-0.408765
880,0.206303,-1.199379,0.838752,0.07434,0.931814,-0.35522,-0.242234,-1.689613,1.154324,-0.138183,-0.437902,-0.100942
881,0.240153,-1.201663,0.906675,0.085813,0.932641,-0.350432,-0.451584,-1.264917,1.156591,-0.042555,0.200599,-0.025789
882,0.293135,-1.211149,0.970077,0.10169,0.936021,-0.33691,-0.997818,0.498338,0.77557,-0.030294,0.640044,0.180827
883,0.33201,-1.230725,0.989826,0.108712,0.942731,-0.315316,-0.613677,0.658738,-0.507023,-0.308038,2.152698,0.067605
884,0.238704,-1.209983,0.921707,0.083468,0.93561,-0.343004,2.061408,-2.593331,-0.749089,-0.150057,-0.788592,1.021821
885,0.174884,-1.188057,0.882007,0.064977,0.927645,-0.367747,0.411119,-0.348526,-0.451573,-0.170812,-1.343249,1.116633
886,0.163062,-1.20102,0.864098,0.058668,0.932408,-0.356592,-0.945759,0.628873,-0.47619,0.101702,-0.955952,0.75767
887,0.153233,-1.225325,0.812292,0.051684,0.940916,-0.33465,-0.986869,2.733075,-1.575169,0.686856,0.192644,1.010828
888,0.094806,-1.243417,0.687003,0.030438,0.946888,-0.320094,-0.521452,2.779104,-2.299436,0.662952,0.32014,0.848292
889,0.050621,-1.261458,0.608458,0.015403,0.952535,-0.304012,-0.969117,0.58248,-0.309651,0.620294,0.401942,0.215175
890,0.078259,-1.284046,0.655108,0.02211,0.959168,-0.281942,-1.326778,-1.382188,0.87289,0.613587,0.395309,0.193105
891,0.15154,-1.308963,0.755657,0.039072,0.965917,-0.255853,-1.46151,-0.896051,1.428938,0.182105,0.020197,0.419931
892,0.306727,-1.337238,0.923493,0.06987,0.972849,-0.220603,-2.092174,-0.131337,1.747224,-0.258713,-0.034449,0.00521
893,0.520433,-1.368439,1.142411,0.099915,0.979596,-0.17433,-2.430778,-0.116942,1.372031,-0.263856,0.064167,-0.069948
894,0.729592,-1.394012,1.369685,0.117189,0.984414,-0.131057,-2.153933,-1.108198,0.737506,-0.199586,0.072867,-0.091218
895,0.915524,-1.41238,1.589838,0.12503,0.987478,-0.096092,-1.901731,-1.68461,0.543454,0.037415,-0.155188,-0.009742
896,1.138747,-1.422579,1.845272,0.13404,0.989036,-0.061807,-1.937196,-1.212788,0.598149,-0.062111,-0.163047,-0.071769
897,1.383359,-1.423505,2.107011,0.144116,0.989172,-0.027334,-1.742513,-0.513074,0.472562,-0.063931,-0.111014,-0.126078
898,1.580459,-1.419977,2.314103,0.150165,0.988648,0.001451,-1.39143,-0.288449,0.205535,-0.054431,-0.071916,-0.103792
899,1.748078,-1.417265,2.484651,0.150456,0.988237,0.026956,-1.262697,0.047854,-0.090963,0.078013,-0.081209,-0.088327
900,1.899648,-1.414492,2.638518,0.147254,0.987809,0.050249,-1.124389,-0.116366,-0.168835,0.151375,-0.133424,-0.021731
901,2.024417,-1.408842,2.769439,0.14487,0.986914,0.070628,-1.053618,-0.232896,-0.12653,0.14346,-0.102896,-0.084331
902,2.146597,-1.400678,2.898424,0.141937,0.985565,0.092143,-1.178494,-0.32057,-0.204202,0.18776,-0.063858,-0.195781
903,2.259709,-1.390529,3.025023,0.138345,0.983796,0.113929,-1.158899,-0.765721,-0.256962,0.243231,0.023483,-0.306083
904,2.341171,-1.381281,3.127241,0.135142,0.982096,0.131141,-0.899184,-0.956022,-0.31152,0.216604,0.103765,-0.226356
905,2.406893,-1.376605,-3.078443,0.129315,0.981204,0.14314,-0.546543,-0.198449,-0.391212,0.187228,0.168866,-0.195112
906,2.46053,-1.376725,-3.027106,0.121381,0.981227,0.149775,-0.193551,0.269999,-0.362641,0.094958,0.263722,-0.230509
907,2.498504,-1.379209,-2.989062,0.114144,0.981703,0.152323,-0.114641,-0.241496,-0.390276,0.163581,0.308641,-0.30192
908,2.525422,-1.384068,-2.944643,0.107244,0.982617,0.151443,0.022777,-1.136261,-0.525971,0.342402,0.208225,-0.264923
909,2.532087,-1.392806,-2.913044,0.10131,0.984201,0.145105,0.288023,-1.154523,-0.451455,0.464577,0.149206,-0.240702
910,2.526238,-1.40524,-2.899678,0.095082,0.986327,0.134503,0.559137,-0.900821,-0.461637,0.479869,0.126695,-0.28323
911,2.486785,-1.423762,-2.914991,0.089165,0.98921,0.116128,0.996832,-1.534131,-0.440677,0.542854,0.169482,-0.248803
912,2.338652,-1.450624,-3.01567,0.086162,0.992788,0.083191,1.71441,-2.933702,-0.31423,0.545857,0.165903,-0.215866
913,1.977081,-1.473213,2.970424,0.089373,0.995243,0.03845,2.103296,-3.355355,0.098156,0.484189,0.10072,0.129381
914,1.403111,-1.477324,2.467564,0.091896,0.995635,-0.015556,2.523405,-3.898987,0.085763,0.150109,0.063295,0.203315
915,0.908579,-1.451828,2.043545,0.093525,0.992932,-0.072918,2.516979,-3.257297,0.259016,0.148479,0.065998,0.260678
916,0.604185,-1.409591,1.786524,0.091145,0.987035,-0.132037,2.976237,-1.873433,0.109832,0.224346,0.442546,0.353152
917,0.442907,-1.352846,1.625892,0.092649,0.976343,-0.195322,3.247564,0.801639,0.099753,0.360476,0.435507,0.250834
918,0.389219,-1.294548,1.546686,0.103485,0.962086,-0.252316,2.856012,1.056574,0.355201,0.46199,0.593121,0.4156
919,0.343295,-1.246818,1.493392,0.107141,0.947977,-0.299739,2.340965,-0.446423,-0.023553,0.209677,0.421515,0.440074
920,0.276523,-1.206906,1.461488,0.097162,0.934519,-0.342369,1.885967,-2.637297,0.270906,0.049261,0.108907,0.417228
921,0.2115,-1.173796,1.473371,0.081165,0.922225,-0.378018,1.396663,-4.365711,0.828383,0.143521,0.016709,0.354886
922,0.167832,-1.141263,1.523605,0.069562,0.90916,-0.410578,1.374845,-4.438946,1.578216,0.497439,0.10822,0.186777
923,0.169883,-1.112778,1.607713,0.074754,0.89693,-0.43579,0.942393,-3.127754,2.259314,0.493331,0.016644,0.303283
924,0.199982,-1.093916,1.706855,0.09118,0.888431,-0.449847,0.254301,-3.000121,2.372916,0.238364,-0.154987,0.4117
925,0.218902,-1.083054,1.803296,0.101764,0.883393,-0.457436,0.026443,-3.521779,2.222442,0.110486,-0.285325,0.583855
926,0.215138,-1.075409,1.884372,0.101481,0.879785,-0.4644,-0.157616,-3.806093,1.820938,-0.029703,-0.319131,0.558638
927,0.213606,-1.078235,1.962743,0.100241,0.881124,-0.462123,-0.705308,-3.269048,1.726693,-0.066336,-0.269522,0.536662
928,0.213494,-1.087781,2.0291,0.098403,0.885598,-0.453893,-0.827571,-2.707406,1.240147,-0.120055,-0.247933,0.466924
929,0.216613,-1.100695,2.083935,0.097352,0.891522,-0.442376,-0.943282,-2.064907,1.039826,-0.173951,-0.137402,0.369668
930,0.230046,-1.115747,2.138132,0.100214,0.89824,-0.427911,-1.023101,-1.590402,0.994863,-0.170282,-0.122849,0.323694
931,0.248471,-1.130703,2.190717,0.104764,0.904712,-0.412923,-0.973644,-1.382387,0.880642,-0.177793,-0.152805,0.242375
932,0.265093,-1.146077,2.237149,0.107956,0.911154,-0.397653,-1.040255,-1.23743,0.65246,-0.145553,-0.232138,0.157617
933,0.275815,-1.16665,2.275611,0.107084,0.919438,-0.378352,-1.317379,-1.224667,0.365293,-0.095274,-0.202794,0.08108
934,0.280169,-1.195263,2.306393,0.101412,0.930312,-0.352446,-1.664584,-1.156191,0.059405,0.150587,0.040589,-0.121843
935,0.289891,-1.228694,2.335316,0.095885,0.942051,-0.321446,-1.742264,-0.644555,0.050729,0.151093,0.106243,-0.280574
936,0.317563,-1.25655,2.375168,0.096508,0.95103,-0.293616,-1.32782,-0.522371,0.304499,0.163899,0.358953,-0.572656
937,0.348878,-1.270549,2.42229,0.101092,0.955263,-0.277911,-0.605199,-0.720647,0.510627,0.27197,0.466337,-0.54875
938,0.380578,-1.268423,2.466759,0.110604,0.954632,-0.276452,0.096367,-0.34269,0.755393,0.241981,0.351459,-0.403907
939,0.422035,-1.256511,2.513115,0.126616,0.951017,-0.281986,0.317107,-0.202438,0.921261,-0.167739,-0.052977,-0.378887
940,0.456649,-1.243761,2.559693,0.141635,0.946999,-0.288297,0.185272,-0.580131,0.915483,-0.096805,-0.185326,-0.177539
941,0.484451,-1.236484,2.596898,0.1528,0.944636,-0.29034,-0.050762,-0.276415,0.559864,-0.076537,-0.125437,-0.10645
942,0.523351,-1.23909,2.631142,0.162745,0.945488,-0.282044,-0.54451,0.9694,0.328355,0.000677,0.378517,0.772614
943,0.562574,-1.247981,2.63679,0.169188,0.948346,-0.268323,-0.158974,1.83979,-0.552418,-0.097747,0.891696,-0.207523
944,0.49929,-1.244647,2.559192,0.153394,0.947283,-0.28126,1.202065,-0.183649,-1.078702,-0.094861,0.117033,0.354228
945,0.434042,-1.239163,2.487434,0.136912,0.945512,-0.295373,0.42708,0.216431,-0.823982,0.08933,-0.511124,0.784035
946,0.382172,-1.244888,2.439256,0.119393,0.94736,-0.297046,-0.131332,-0.624122,-0.85992,0.346428,-0.432971,0.764804
947,0.317903,-1.260068,2.384512,0.095561,0.952111,-0.290404,-0.526534,-0.387939,-1.238998,0.514119,-0.128198,0.661467
948,0.25184,-1.281194,2.313611,0.071153,0.958357,-0.276532,-0.880848,0.19653,-1.106557,0.589629,0.598527,0.139737
949,0.267088,-1.29925,2.326252,0.070781,0.963357,-0.258678,-0.942962,-0.019145,0.399478,0.468617,0.470069,-0.130833
950,0.329516,-1.317268,2.406122,0.08115,0.968034,-0.237291,-1.239356,-0.911708,0.887797,0.147518,0.094192,0.27698
951,0.427196,-1.33224,2.517164,0.097887,0.97168,-0.215028,-1.18498,-0.340266,0.993199,0.04286,-0.055329,0.168015
952,0.549127,-1.34547,2.650573,0.116592,0.974721,-0.19054,-1.383337,-0.481567,1.069974,-0.136367,-0.12351,0.055469
953,0.686545,-1.35606,2.802472,0.135041,0.977033,-0.164776,-1.3286,-0.470885,1.012608,-0.199738,-0.128903,-0.018665
954,0.809562,-1.360974,2.933813,0.15076,0.978068,-0.143645,-0.955599,-0.160938,0.701827,-0.226032,-0.142283,-0.06299
955,0.884443,-1.36357,3.012435,0.159118,0.978605,-0.130353,-0.571635,-0.108482,0.304927,-0.139571,-0.235151,-0.133365
956,0.923659,-1.365581,3.053738,0.162535,0.979017,-0.122827,-0.274757,0.019012,0.132717,0.042451,-0.231138,-0.279944
957,0.930931,-1.364876,3.059827,0.163977,0.978873,-0.122054,0.120519,0.027659,0.02544,0.053461,-0.233161,-0.274187
958,0.893319,-1.361262,3.023549,0.162028,0.978128,-0.130351,0.575036,-0.167002,-0.173029,0.080266,-0.304132,-0.113286
959,0.825116,-1.356205,2.954248,0.156401,0.977063,-0.144446,0.790153,0.079956,-0.312849,0.093492,-0.358091,-0.058634
960,0.756123,-1.348645,2.880673,0.151137,0.975426,-0.160255,0.780777,0.164009,-0.278839,0.110033,-0.409645,-0.050835
961,0.706994,-1.341492,2.831102,0.147613,0.973825,-0.172786,0.604107,-0.26437,-0.091517,0.076294,-0.200464,-0.166143
962,0.661244,-1.33315,2.796813,0.144542,0.971895,-0.185762,0.528169,-0.719227,-0.029507,0.067159,-0.271684,-0.034041
963,0.627969,-1.324791,2.769485,0.143051,0.969893,-0.197037,0.575983,-0.028121,-0.006558,0.078095,-0.286864,0.031678
964,0.609958,-1.31439,2.739941,0.145251,0.967308,-0.207841,0.651321,0.846143,0.009939,0.180798,-0.26847,0.139238
965,0.600887,-1.302496,2.712405,0.149855,0.964223,-0.218627,0.716537,0.698667,0.070404,0.397844,-0.08405,-0.108979
966,0.578387,-1.286889,2.687332,0.153109,0.959968,-0.234519,0.96235,-0.256162,0.209009,0.481046,-0.037529,-0.157495
967,0.537786,-1.263341,2.656117,0.155004,0.953107,-0.259889,1.443745,-0.655289,0.236384,0.396113,-0.095853,-0.114898
968,0.46724,-1.228782,2.606948,0.151053,0.942081,-0.299413,2.123247,-1.769239,0.098348,0.327203,0.09779,0.049016
969,0.356709,-1.179422,2.552063,0.133195,0.924386,-0.357426,2.952354,-3.674567,0.065988,0.205748,0.696815,-0.036784
970,0.231848,-1.123449,2.50907,0.099392,0.901598,-0.420985,2.81179,-4.439559,-0.047245,0.065708,0.932783,0.316981
971,0.136394,-1.07121,2.486083,0.065137,0.877781,-0.4746,2.597036,-3.299056,-0.025637,-0.149198,0.891628,0.251608
972,0.070114,-1.022549,2.480387,0.036512,0.853439,-0.519901,2.318072,-3.164852,0.221138,0.005389,0.755219,0.436313
973,0.027236,-0.980566,2.494692,0.015156,0.830813,-0.556336,1.787843,-2.098078,0.571785,0.164013,0.392057,0.39589
974,0.029601,-0.957927,2.510552,0.017024,0.818001,-0.574956,0.905698,0.206428,0.459053,-0.22108,-0.024818,0.124486
975,0.055933,-0.941988,2.533722,0.032881,0.808729,-0.587253,0.590207,0.462548,0.884878,-0.075438,-0.104078,0.247638
976,0.103741,-0.940391,2.568633,0.061042,0.807789,-0.586294,-0.381125,1.272604,1.082154,-0.026496,-0.198597,0.387503
977,0.167353,-0.954493,2.609907,0.096281,0.816021,-0.569938,-1.068894,1.593518,1.079075,-0.098158,-0.345226,0.431129
978,0.233659,-0.977029,2.651341,0.129541,0.828839,-0.544274,-1.507339,1.575875,0.810048,-0.150872,-0.397977,0.37452
979,0.293759,-1.007565,2.688996,0.154595,0.845534,-0.511038,-1.858785,1.352723,0.443615,-0.174599,-0.498397,0.33515
980,0.345168,-1.044709,2.717357,0.169902,0.864778,-0.472524,-2.075105,1.359853,-0.085607,-0.142253,-0.51198,0.284871
981,0.38567,-1.090854,2.734555,0.173687,0.887021,-0.427798,-2.473438,1.179244,-0.660725,-0.113552,-0.514585,0.220569
982,0.410357,-1.151412,2.741115,0.162439,0.91334,-0.373374,-3.068023,0.756506,-1.253995,-0.045236,-0.415705,0.036994
983,0.414771,-1.221205,2.740159,0.138016,0.939513,-0.313448,-3.069082,-0.122728,-1.423791,0.008026,-0.158049,-0.193388
984,0.397366,-1.273163,2.746708,0.113476,0.956033,-0.270379,-2.038864,-1.73193,-0.561023,0.055134,0.627722,-0.324622
985,0.413052,-1.307353,2.801172,0.104514,0.965499,-0.238473,-1.943606,-1.681685,0.376408,-0.036872,-0.153686,-0.130317
986,0.506497,-1.338924,2.920478,0.111459,0.973238,-0.200911,-1.980949,-0.716371,0.631284,-0.183145,-0.187242,-0.204744
987,0.624647,-1.357817,3.044485,0.123585,0.977405,-0.17142,-1.18701,0.110405,0.711614,-0.315357,-0.221012,-0.335599
988,0.737322,-1.358677,-3.129913,0.141509,0.977587,-0.155814,-0.523899,0.420548,0.898514,-0.118086,-0.319368,0.236075
989,0.796836,-1.345988,-3.095413,0.159387,0.974837,-0.155782,0.695419,2.13616,0.511727,0.270514,0.017396,0.898702
990,0.789974,-1.327486,3.120219,0.171102,0.970546,-0.169544,1.296576,2.916994,-0.005299,0.363947,0.982,-0.190411
991,0.83136,-1.333106,3.140667,0.173936,0.971884,-0.15864,-1.811449,-0.509559,-0.084574,0.705687,0.834726,-0.179159
992,0.790556,-1.336552,-3.136566,0.164938,0.97269,-0.163245,0.860993,-2.326129,-0.20138,0.257349,1.187161,-0.373422
993,0.758144,-1.336691,-3.140073,0.159468,0.972722,-0.168406,-0.104362,-1.327722,0.04163,0.809068,0.660029,-0.77448
994,0.688888,-1.314467,3.06462,0.161139,0.967327,-0.195684,1.835307,1.658336,-0.064016,0.114465,-0.177731,0.880498
995,0.679251,-1.291347,3.015911,0.173254,0.961208,-0.214576,0.848597,1.551889,0.503932,-0.044821,-0.294475,0.167014
996,0.731995,-1.28709,3.054352,0.187059,0.960024,-0.208187,-0.665577,0.467702,0.418901,-0.137834,-0.085772,0.325252
997,0.795439,-1.297912,3.114759,0.192449,0.962998,-0.188623,-1.122472,0.116797,0.123466,-0.14562,-0.113098,0.051873
998,0.863315,-1.314789,-3.093258,0.192416,0.967409,-0.164547,-1.173285,-0.523191,0.10684,0.127896,-0.083482,-0.461903
999,0.877491,-1.31563,-3.061786,0.194104,0.967621,-0.161283,0.010352,-0.619091,0.152618,0.059238,-0.103028,-0.086017
1000,0.867272,-1.317097,-3.082132,0.191363,0.967991,-0.162339,0.216381,0.979313,-0.414149,-0.066317,-0.219165,-0.200225
1001,0.850249,-1.319847,-3.117533,0.186571,0.968677,-0.163816,0.163235,0.624456,-0.338222,-0.063585,-0.275669,-0.274829
1002,0.832469,-1.323039,3.140849,0.18134,0.969465,-0.165024,0.191334,0.232326,-0.335386,0.130428,-0.160429,-0.026779
1003,0.805158,-1.322803,3.10271,0.176931,0.969407,-0.170074,0.409144,0.60508,-0.234998,0.159708,-0.235322,0.127013
1004,0.799097,-1.316438,3.083549,0.180317,0.967825,-0.175443,0.391088,0.617083,0.240166,0.258892,-0.211416,-0.084475
1005,0.803447,-1.30395,3.075595,0.189765,0.964607,-0.183036,0.568635,0.630765,0.394145,0.370049,-0.211845,-0.136529
1006,0.786293,-1.291287,3.050673,0.195228,0.961191,-0.194879,0.796721,0.025106,0.076048,0.438286,-0.295679,-0.047812
1007,0.716162,-1.278246,2.994324,0.189308,0.957512,-0.21752,1.223328,-1.237605,-0.203502,0.372689,-0.240608,-0.064752
1008,0.617436,-1.254571,2.919974,0.180025,0.950416,-0.25354,1.783367,-1.385929,-0.093646,0.308821,-0.146446,-0.084503
1009,0.513654,-1.219481,2.847065,0.169082,0.938921,-0.299703,2.40092,-2.140154,-0.093707,0.165848,0.27603,0.088201
1010,0.387861,-1.173012,2.772081,0.146502,0.921921,-0.358584,2.813991,-3.019608,-0.301202,-0.075091,0.589492,0.021609
1011,0.27317,-1.123731,2.719092,0.116629,0.90172,-0.416275,2.540596,-3.391094,-0.13813,-0.045218,0.609694,0.0793
1012,0.186397,-1.077875,2.694067,0.087691,0.880954,-0.464991,2.311561,-3.183095,-0.007537,-0.150862,1.087415,0.27801
1013,0.116577,-1.034964,2.684488,0.059383,0.859844,-0.507079,1.97198,-2.826865,0.179779,-0.219921,0.47823,0.502456
1014,0.083222,-1.001686,2.692169,0.044794,0.842381,-0.537007,1.383704,-1.48039,0.431385,-0.279764,0.136135,0.303288
1015,0.077014,-0.979689,2.701138,0.042875,0.830324,-0.555619,0.986662,-0.275569,0.244402,-0.077146,0.104658,0.0616
1016,0.086034,-0.963639,2.707565,0.049024,0.821273,-0.568415,0.548188,0.513968,0.316171,0.048968,-0.059204,0.02717
1017,0.115866,-0.964092,2.723033,0.065914,0.821531,-0.566331,-0.406551,0.943811,0.476663,-0.015148,-0.184767,0.189759
1018,0.1523,-0.977807,2.743809,0.084781,0.829274,-0.552363,-0.904623,0.99025,0.483806,-0.079715,-0.277653,0.350383
1019,0.188798,-0.998544,2.76399,0.101631,0.840683,-0.531893,-1.260149,0.970991,0.280522,-0.144966,-0.338288,0.350878
1020,0.221097,-1.027627,2.779281,0.113343,0.856075,-0.504258,-1.633213,0.996891,-0.011605,-0.207002,-0.444164,0.326112
1021,0.249822,-1.063401,2.787832,0.120127,0.874013,-0.470805,-1.877904,1.072521,-0.330673,-0.204126,-0.507909,0.258417
1022,0.269789,-1.105934,2.789488,0.11948,0.893883,-0.432068,-2.192681,0.803018,-0.593173,-0.117374,-0.423897,0.157456
1023,0.284266,-1.155017,2.792542,0.11327,0.914802,-0.387675,-2.474992,0.442784,-0.572251,0.083965,-0.249992,-0.009145
1024,0.304953,-1.2055,2.813455,0.107249,0.934018,-0.340721,-2.524474,-0.231768,-0.205332,0.180898,-0.006833,-0.182457
1025,0.335136,-1.25275,2.861583,0.10284,0.949848,-0.295287,-2.49011,-1.023712,0.142027,0.165623,0.091824,-0.267061
1026,0.393184,-1.297486,2.945095,0.103401,0.962883,-0.249291,-2.541892,-1.068496,0.463258,0.125465,-0.024314,-0.101661
1027,0.501452,-1.335646,3.069955,0.111977,0.972479,-0.204266,-2.246916,-0.292624,0.652331,0.021523,-0.09487,-0.054935
1028,0.646156,-1.358909,-3.068248,0.126599,0.977636,-0.167868,-1.578644,0.37787,0.762962,-0.168286,0.055399,-0.120889
1029,0.790883,-1.366591,-2.929853,0.14414,0.979222,-0.142568,-1.07308,0.415245,0.834811,-0.271322,0.147975,-0.2476
1030,0.914057,-1.368763,-2.798671,0.158878,0.979661,-0.122478,-1.122435,-0.914785,0.75285,-0.509525,0.018249,-0.646413
1031,1.000523,-1.364344,-2.683488,0.172503,0.978764,-0.110636,-0.428354,-0.902754,0.871982,-0.007266,-0.087132,0.674127
1032,1.009913,-1.34965,-2.714729,0.185697,0.975647,-0.116651,1.339721,3.831499,0.097395,-0.057844,-0.006073,0.844114
1033,0.956334,-1.333994,-2.872619,0.191646,0.972093,-0.135222,2.101392,5.044875,-0.568614,0.393498,0.854842,-1.369188
