,attitude.roll,attitude.pitch,attitude.yaw,gravity.x,gravity.y,gravity.z,rotationRate.x,rotationRate.y,rotationRate.z,userAcceleration.x,userAcceleration.y,userAcceleration.z
0,0.627059,-1.058523,0.278144,0.287608,0.871632,-0.396908,1.077263,0.224394,0.350103,0.368047,0.817622,-0.077808
1,0.628015,-1.043158,0.275923,0.295822,0.863998,-0.407423,0.361392,0.052994,0.410484,0.325471,0.411316,-0.055757
2,0.634446,-1.041952,0.289878,0.299053,0.863391,-0.406351,-0.439472,-0.508131,0.23683,0.142109,-0.089251,-0.066839
3,0.638048,-1.05255,0.30934,0.295048,0.868689,-0.397899,-0.83277,-0.664512,-0.008204,0.080563,-0.158545,-0.055333
4,0.645913,-1.068337,0.329102,0.289876,0.876401,-0.384565,-0.95889,-0.337706,-0.106711,-0.073994,-0.144986,-0.057924
5,0.661664,-1.08543,0.350655,0.28665,0.884504,-0.368078,-0.981086,-0.068057,-0.121099,-0.137632,-0.122602,0.025411
6,0.680398,-1.102012,0.371072,0.284228,0.892118,-0.351193,-0.92682,0.077927,-0.179655,-0.148669,-0.231901,0.115857
7,0.699518,-1.120072,0.3897,0.280469,0.900132,-0.333311,-1.011296,0.126746,-0.326654,-0.197263,-0.377473,0.201261
8,0.719419,-1.144946,0.407107,0.272205,0.910688,-0.310722,-1.292843,0.309037,-0.647184,-0.166966,-0.649457,0.255119
9,0.74953,-1.17589,0.4292,0.262106,0.923033,-0.281616,-1.511207,0.551906,-0.720592,-0.137075,-0.674223,0.167282
10,0.78998,-1.206009,0.46157,0.25341,0.9342,-0.251098,-1.447313,0.479539,-0.527773,-0.124641,-0.272426,0.051467
11,0.836594,-1.2289,0.503069,0.248891,0.942121,-0.224627,-1.218927,0.31245,-0.23327,-0.073903,-0.235639,-0.00459
12,0.882201,-1.244232,0.547649,0.247689,0.94715,-0.203843,-0.941192,0.118907,-0.025984,0.027381,-0.215171,-0.041976
13,0.922659,-1.250875,0.587031,0.25071,0.94926,-0.189855,-0.569648,0.192234,0.228618,0.035697,-0.167949,0.003774
14,0.965049,-1.250273,0.626257,0.259,0.949071,-0.179386,-0.462509,0.285742,0.461051,-0.003751,-0.119908,0.017002
15,1.008296,-1.247247,0.66721,0.268941,0.948113,-0.169551,-0.398211,0.119303,0.469191,-0.100896,0.314384,0.011287
16,1.012752,-1.240185,0.677091,0.275368,0.945844,-0.171892,0.382183,-0.401574,0.315076,-0.101021,0.642428,0.064318
17,0.973818,-1.230013,0.64241,0.276411,0.942493,-0.187879,0.920298,-0.170941,-0.017951,-0.038145,0.952969,0.292631
18,0.934195,-1.224559,0.593734,0.272882,0.940656,-0.201735,0.586729,0.556896,-0.324589,0.009161,0.0367,0.345274
19,0.939416,-1.226309,0.584098,0.272602,0.941249,-0.199335,-0.110599,0.727438,-0.011348,0.15263,-0.099986,-0.004584
20,0.948989,-1.220674,0.586539,0.278804,0.939331,-0.199802,0.400271,0.091468,0.344481,0.222218,0.383347,-0.050411
21,0.92338,-1.209349,0.564776,0.282064,0.935386,-0.213278,0.569723,-0.44286,0.087839,0.559687,0.661904,0.063407
22,0.900129,-1.209643,0.551772,0.276814,0.93549,-0.219608,0.011478,-0.51023,-0.162733,0.403392,0.160961,-0.141568
23,0.894041,-1.210296,0.551131,0.274995,0.935721,-0.220906,-0.003729,-0.14342,0.027902,0.192565,0.156717,-0.121807
24,0.906008,-1.207184,0.563848,0.279909,0.934618,-0.219395,-0.149474,0.10266,0.419675,0.198866,0.294615,0.031223
25,0.94161,-1.202382,0.597521,0.291166,0.932899,-0.211931,-0.473949,0.232043,0.579612,0.147249,0.111443,0.08655
26,0.986235,-1.202721,0.6414,0.300067,0.933021,-0.198557,-0.72488,0.142431,0.297032,0.042523,-0.035332,0.153803
27,1.022896,-1.209475,0.67851,0.301757,0.93543,-0.184138,-0.728863,0.098028,-0.050111,0.024461,-0.111731,0.224177
28,1.0553,-1.218504,0.709866,0.300202,0.938584,-0.170093,-0.671624,0.166352,-0.136325,-0.037293,-0.162248,0.245213
29,1.081228,-1.22686,0.733906,0.297579,0.941435,-0.15856,-0.484746,0.164796,-0.17561,-0.082048,-0.152555,0.205618
30,1.096604,-1.233016,0.74726,0.294819,0.943492,-0.151316,-0.22668,0.133023,-0.179108,-0.1722,-0.209377,0.085627
31,1.091167,-1.236613,0.736505,0.290979,0.944679,-0.151349,0.265481,0.338391,-0.281687,-0.176034,-0.328712,0.003889
32,1.065225,-1.237592,0.697599,0.286146,0.944999,-0.158398,0.683413,0.651582,-0.377446,-0.075513,-0.475639,0.074643
33,1.028179,-1.236557,0.64369,0.28092,0.94466,-0.169393,0.816929,0.668232,-0.394694,-0.009695,-0.531254,0.060094
34,0.990772,-1.23392,0.591797,0.276471,0.943792,-0.181145,0.766842,0.53594,-0.301939,0.117633,-0.542959,0.110069
35,0.957665,-1.229309,0.548135,0.27388,0.942258,-0.192699,0.721456,0.30015,-0.171631,0.171478,-0.441998,0.08453
36,0.92391,-1.222433,0.508942,0.272384,0.939933,-0.205732,0.741461,0.084568,-0.09003,0.172837,-0.41326,0.090758
37,0.888553,-1.215773,0.473178,0.269795,0.937638,-0.219176,0.642221,-0.206771,-0.140556,0.1777,-0.316026,0.186033
38,0.848288,-1.208704,0.440766,0.265719,0.935158,-0.234235,0.713179,-0.684718,-0.026217,0.034299,-0.02755,0.228223
39,0.808115,-1.194374,0.415745,0.26576,0.929986,-0.253951,0.882187,-0.872383,0.403561,-0.066831,0.336524,0.226989
40,0.784262,-1.170288,0.406045,0.275372,0.920863,-0.275999,1.020844,-0.603296,0.922273,-0.160809,0.564275,0.136564
41,0.771135,-1.138279,0.399021,0.292126,0.907913,-0.300581,1.429919,-0.185321,1.003643,-0.126248,0.74266,-0.117647
42,0.752544,-1.105193,0.376118,0.30686,0.893551,-0.327716,1.495412,0.237832,0.621135,0.0375,0.755787,-0.160169
43,0.737421,-1.081808,0.35334,0.315835,0.882808,-0.347694,1.030439,0.211923,0.31134,0.236396,0.600758,-0.178567
44,0.723832,-1.066299,0.337941,0.320111,0.875418,-0.362169,0.744269,-0.147934,0.241436,0.329853,0.605265,-0.144102
45,0.714696,-1.052285,0.333207,0.324798,0.868558,-0.374309,0.453217,-0.373573,0.443723,0.354889,0.780414,-0.092564
46,0.711388,-1.045658,0.343871,0.327309,0.865255,-0.379733,-0.164748,-0.749246,0.35443,0.104606,0.545115,-0.083799
47,0.709742,-1.051565,0.361908,0.323347,0.868201,-0.376388,-0.689905,-0.897355,0.019803,0.031847,0.242334,-0.043534
48,0.708561,-1.066136,0.380209,0.314636,0.875339,-0.367124,-0.908289,-0.804105,-0.19976,-0.129975,-0.018176,0.025876
49,0.713246,-1.084873,0.400186,0.305566,0.884244,-0.353179,-1.093437,-0.537882,-0.281511,-0.171304,-0.263974,0.120055
50,0.728992,-1.107271,0.425381,0.29782,0.894482,-0.333466,-1.291353,-0.218534,-0.317485,-0.169478,-0.501583,0.093338
51,0.754876,-1.131673,0.455467,0.291304,0.905125,-0.309653,-1.350894,0.030021,-0.352403,-0.169371,-0.550633,0.080389
52,0.785812,-1.15601,0.48579,0.285072,0.915202,-0.284836,-1.277005,0.237856,-0.442952,-0.169426,-0.667278,0.060395
53,0.81638,-1.179999,0.513405,0.277563,0.924606,-0.260876,-1.196827,0.211197,-0.505383,-0.149587,-0.605498,0.093227
54,0.8433,-1.20241,0.540859,0.268938,0.93291,-0.239467,-1.085111,-0.033387,-0.4434,-0.120592,-0.551364,0.089046
55,0.868018,-1.219715,0.571888,0.262415,0.939002,-0.222278,-0.915777,-0.326863,-0.192946,-0.059229,-0.410361,0.090747
56,0.892671,-1.231836,0.608415,0.258931,0.943101,-0.208586,-0.837512,-0.548325,-0.023336,-0.034184,-0.386109,0.089873
57,0.919842,-1.242236,0.649764,0.256686,0.946508,-0.19552,-0.861428,-0.596385,0.027833,-0.077563,-0.285161,0.068735
58,0.949914,-1.250552,0.693968,0.256036,0.949159,-0.183128,-0.766863,-0.584319,0.126751,-0.226083,0.12741,0.104835
59,0.981155,-1.253497,0.736784,0.259307,0.950082,-0.173486,-0.538501,-0.339978,0.363042,-0.188995,0.129646,0.087991
60,1.009445,-1.249059,0.766816,0.267678,0.948687,-0.168325,-0.060219,0.060654,0.458804,-0.175027,0.141767,0.00414
61,0.994657,-1.236244,0.752019,0.275333,0.944557,-0.178874,0.915687,-0.106395,0.362218,-0.165775,0.706901,0.230785
62,0.955575,-1.224927,0.708155,0.276847,0.940781,-0.195653,0.720752,0.372632,-0.180278,-0.135916,0.960907,0.48998
63,0.940683,-1.224559,0.681659,0.274182,0.940656,-0.199958,0.382907,0.449456,-0.184873,0.125079,1.010882,0.114005
64,0.913805,-1.214509,0.640673,0.276181,0.937198,-0.213017,1.012811,0.817951,0.090383,0.458194,0.801876,0.109044
65,0.902475,-1.200098,0.611218,0.284323,0.932074,-0.22448,0.710518,0.695709,0.286049,0.504617,-0.210929,-0.138435
66,0.887445,-1.192358,0.587923,0.286504,0.929243,-0.233277,0.469021,0.066082,-0.024615,0.289714,-0.035566,-0.101577
67,0.878623,-1.190586,0.581704,0.285702,0.928587,-0.236846,-0.083855,-0.20371,-0.008903,0.190083,0.162173,0.018874
68,0.891689,-1.195852,0.596951,0.284963,0.930528,-0.230018,-0.511224,0.081358,-0.064597,0.094768,0.27986,0.093803
69,0.914638,-1.206398,0.614011,0.282375,0.934338,-0.217419,-0.598983,0.51292,-0.285816,0.140813,0.334873,0.165738
70,0.95261,-1.217647,0.638936,0.28184,0.938288,-0.200438,-0.739047,0.841939,-0.126983,0.207753,0.055211,0.133788
71,1.003929,-1.227671,0.675245,0.283802,0.941708,-0.180657,-0.792898,0.818332,-0.037598,0.132808,-0.079312,0.074394
72,1.052007,-1.235416,0.710959,0.285814,0.944285,-0.163187,-0.666531,0.681556,-0.041881,0.056914,-0.245265,0.054331
73,1.084751,-1.246459,0.733192,0.281765,0.947862,-0.148862,-0.545945,0.516597,-0.452093,-0.016735,-0.130754,0.027646
74,1.103085,-1.25942,0.743839,0.273458,0.951913,-0.138121,-0.364847,0.378856,-0.528632,-0.009252,-0.215554,0.047377
75,1.110767,-1.270384,0.74409,0.265142,0.955215,-0.131374,-0.195709,0.364031,-0.431292,-0.000402,-0.307723,0.094356
76,1.114955,-1.277743,0.741271,0.25937,0.957366,-0.127164,-0.086542,0.327994,-0.305501,0.009246,-0.442504,0.123868
77,1.113548,-1.281987,0.733847,0.255543,0.958584,-0.125734,0.069472,0.249269,-0.200693,-0.035695,-0.568386,0.071886
78,1.096184,-1.282484,0.712367,0.252898,0.958725,-0.129935,0.389682,0.105158,-0.137383,-0.099547,-0.628967,0.035895
79,1.05873,-1.278928,0.673651,0.250826,0.957708,-0.140983,0.656463,-0.082344,-0.098959,-0.097338,-0.597768,0.00724
80,1.009024,-1.273635,0.624655,0.247798,0.956171,-0.15597,0.799422,-0.145443,-0.160905,0.002171,-0.45106,0.014826
81,0.954399,-1.266849,0.569829,0.244202,0.954163,-0.173013,0.887212,-0.088181,-0.171047,0.17511,-0.24884,-0.050421
82,0.902495,-1.258914,0.516378,0.240832,0.951758,-0.190135,0.86919,-0.050881,-0.159471,0.330961,-0.130041,0.075145
83,0.858469,-1.249906,0.475137,0.23871,0.948955,-0.206146,0.747219,-0.418716,0.024951,0.170897,-0.206401,0.314666
84,0.811997,-1.236441,0.445219,0.238128,0.944622,-0.225785,0.864047,-1.218094,0.294915,0.054719,-0.071957,0.350969
85,0.766292,-1.216122,0.428002,0.240825,0.93776,-0.250209,0.971163,-1.490436,0.642116,-0.145473,0.357223,0.335047
86,0.734272,-1.189059,0.421641,0.24961,0.928019,-0.276533,1.116304,-1.189575,0.935437,-0.184013,0.532919,0.074873
87,0.706628,-1.157174,0.41212,0.260958,0.915671,-0.305685,1.473039,-0.737633,0.826255,-0.031237,0.756876,-0.247614
88,0.676972,-1.127004,0.384844,0.268968,0.90313,-0.334676,1.449583,-0.015538,0.355148,0.057311,0.601921,-0.164347
89,0.657162,-1.104191,0.362522,0.274802,0.8931,-0.356161,1.070813,-0.010001,0.364246,0.121545,0.685955,-0.215769
90,0.643968,-1.083751,0.351567,0.280982,0.88372,-0.374278,0.861165,-0.327945,0.402713,0.480355,0.776955,-0.087865
91,0.634505,-1.072506,0.350177,0.283301,0.878401,-0.3849,0.188195,-0.441046,0.232583,0.234888,0.415544,0.029019
92,0.630918,-1.077101,0.363128,0.279535,0.880588,-0.382651,-0.677042,-0.906887,-0.0036,0.099692,-0.173312,-0.08468
93,0.627594,-1.092654,0.382881,0.270186,0.887851,-0.372446,-0.940763,-1.049385,-0.103536,-0.028105,-0.129489,-0.070242
94,0.62785,-1.108428,0.404676,0.262021,0.894998,-0.360996,-0.925247,-0.859002,-0.041714,-0.199155,-0.082346,0.063587
95,0.638121,-1.124915,0.429704,0.256889,0.902231,-0.346386,-1.040752,-0.46862,-0.064386,-0.238716,-0.283136,0.176311
96,0.659102,-1.144917,0.458047,0.252995,0.910676,-0.326586,-1.232763,-0.084063,-0.16236,-0.223805,-0.391099,0.177171
97,0.689654,-1.169612,0.490001,0.248465,0.920599,-0.30126,-1.459313,0.114585,-0.358613,-0.160239,-0.539068,0.114676
98,0.725621,-1.200486,0.524862,0.240155,0.932215,-0.270731,-1.651933,0.199398,-0.621782,-0.112912,-0.776515,0.021586
99,0.757357,-1.234364,0.556926,0.226789,0.943938,-0.239878,-1.569054,-0.012331,-0.758732,-0.120573,-0.687743,-0.006093
100,0.783243,-1.262308,0.586414,0.214221,0.952794,-0.215146,-1.153564,-0.145762,-0.518514,-0.04198,-0.100789,0.002652
101,0.812016,-1.277277,0.620036,0.209948,0.957232,-0.199058,-0.745315,-0.154718,0.034484,0.063841,0.053648,0.026725
102,0.854014,-1.280739,0.664907,0.21562,0.958228,-0.18789,-0.535116,-0.028,0.396848,0.015856,-0.095251,-0.021202
103,0.898111,-1.280753,0.714261,0.223683,0.958231,-0.178194,-0.531239,-0.276528,0.473038,-0.121419,0.006841,0.044771
104,0.9134,-1.275374,0.743481,0.230458,0.956679,-0.1779,0.117308,-0.790074,0.464339,-0.082097,0.393449,0.175077
105,0.891487,-1.263936,0.73543,0.235004,0.953287,-0.18977,0.573038,-0.580475,0.401024,-0.140369,0.744422,0.320065
106,0.878021,-1.255577,0.719429,0.23855,0.950728,-0.198,0.289246,0.457518,0.011015,-0.11416,-0.091384,0.33835
107,0.86332,-1.254076,0.700371,0.236698,0.950262,-0.202412,0.635248,-0.360034,-0.167118,-0.122852,0.057291,0.06722
108,0.77498,-1.238129,0.620686,0.228493,0.945175,-0.233304,1.466946,-0.288236,-0.461569,0.403007,1.774002,0.420712
109,0.731506,-1.234723,0.575686,0.220288,0.944057,-0.245409,0.366527,-0.078988,-0.154398,0.629291,-0.22697,-0.296567
110,0.711693,-1.224316,0.554616,0.221787,0.940574,-0.257152,0.698247,0.014325,0.198176,0.161071,-0.039542,-0.058598
111,0.724796,-1.213747,0.572004,0.231716,0.936932,-0.261652,-0.098792,-0.205456,0.705637,0.175251,0.025348,-0.011893
112,0.763439,-1.211124,0.616259,0.24335,0.936012,-0.254279,-0.597836,-0.058244,0.554548,0.122861,0.189461,0.038794
113,0.803641,-1.220275,0.657814,0.247196,0.939194,-0.238337,-0.97215,0.117942,-0.022996,0.336147,0.243927,0.07545
114,0.844072,-1.236778,0.695827,0.245009,0.944733,-0.217821,-0.988508,0.286163,-0.251925,0.330706,0.137985,0.053591
115,0.872758,-1.255016,0.721444,0.237914,0.950554,-0.199595,-0.889719,0.160128,-0.520265,0.155153,-0.073693,0.100657
116,0.896298,-1.276568,0.744668,0.22649,0.957026,-0.181102,-0.98677,0.036359,-0.653244,0.075893,-0.132182,0.039348
117,0.917485,-1.298974,0.765499,0.213191,0.963283,-0.163185,-0.824003,0.091502,-0.731226,-0.049418,-0.19186,-0.058311
118,0.92015,-1.318424,0.763753,0.198676,0.968323,-0.151237,-0.436423,0.313125,-0.812124,-0.037711,-0.242432,-0.006142
119,0.912913,-1.335442,0.747058,0.184508,0.972432,-0.142573,-0.348231,0.511857,-0.770103,0.056078,-0.357518,0.050989
120,0.91332,-1.35116,0.735912,0.172443,0.975977,-0.133138,-0.397556,0.577589,-0.648754,0.096859,-0.479792,0.112539
121,0.921184,-1.363842,0.731711,0.163614,0.978661,-0.12428,-0.292685,0.609447,-0.448305,0.058279,-0.521844,0.165738
122,0.922752,-1.370868,0.720901,0.158323,0.980081,-0.11987,-0.024468,0.603701,-0.309691,0.022143,-0.537728,0.121854
123,0.904374,-1.374311,0.690577,0.153439,0.980759,-0.120672,0.229158,0.524043,-0.322773,0.090946,-0.493744,0.079061
124,0.861834,-1.373366,0.639399,0.148872,0.980574,-0.127691,0.504013,0.276686,-0.241488,0.286721,-0.359251,0.126043
125,0.813892,-1.368696,0.588562,0.14591,0.979647,-0.137823,0.529824,-0.023266,-0.111668,0.385065,-0.322009,0.057363
126,0.771677,-1.360438,0.549817,0.145601,0.977956,-0.149652,0.60637,-0.359892,0.087987,0.355925,-0.365194,0.157144
127,0.734055,-1.348307,0.527422,0.147806,0.975351,-0.16382,0.629641,-1.087565,0.356138,0.209112,-0.34849,0.178911
128,0.697986,-1.328396,0.521424,0.154256,0.970765,-0.183889,0.898166,-1.716471,0.754061,-0.004766,0.280304,0.059454
129,0.671968,-1.299768,0.530465,0.166657,0.963496,-0.20951,1.13779,-1.6815,1.124227,0.006331,0.52094,0.04058
130,0.653357,-1.262235,0.54171,0.184593,0.952771,-0.241135,1.508581,-1.304552,1.37523,0.155709,1.058734,-0.084701
131,0.647708,-1.223887,0.559948,0.205133,0.940428,-0.271127,1.112495,-1.175146,1.325295,0.352636,1.034151,-0.17739
132,0.642861,-1.199966,0.586107,0.217243,0.932027,-0.290045,0.50731,-1.607225,0.945608,0.196163,0.933894,-0.15275
133,0.623727,-1.185736,0.601202,0.219379,0.926776,-0.304884,0.338424,-1.69202,0.453154,0.001233,0.198697,0.023359
134,0.592971,-1.180853,0.607051,0.212426,0.924931,-0.315235,-0.030974,-1.98168,0.217005,0.183158,-0.224461,0.07146
135,0.57169,-1.183132,0.62398,0.204529,0.925795,-0.31791,-0.439944,-1.79819,0.23955,0.11113,-0.107573,0.053201
136,0.565283,-1.192532,0.656174,0.197818,0.929307,-0.311851,-0.85171,-1.810506,0.213189,0.03761,0.067733,-0.011955
137,0.560803,-1.206994,0.689415,0.18925,0.93455,-0.301321,-0.935081,-1.729826,0.089658,-0.010966,-0.071101,0.122213
138,0.557569,-1.221203,0.720288,0.181229,0.939512,-0.290632,-0.881793,-1.523275,0.071606,-0.007798,-0.17819,0.164747
139,0.560568,-1.237905,0.753194,0.173732,0.945102,-0.276757,-1.10354,-1.338912,-0.01991,-0.07252,-0.410708,0.212502
140,0.570005,-1.261693,0.789818,0.164154,0.952607,-0.256101,-1.425357,-1.227217,-0.233809,-0.191056,-0.602692,0.132337
141,0.5805,-1.291014,0.824034,0.151444,0.961115,-0.230901,-1.519385,-1.01079,-0.462275,-0.160233,-0.645472,0.08225
142,0.594844,-1.32025,0.853598,0.138929,0.968777,-0.205336,-1.338956,-0.514974,-0.468059,-0.167356,-0.610607,0.01158
143,0.616685,-1.342313,0.881994,0.130984,0.974011,-0.184767,-0.954306,-0.201744,-0.278835,-0.120547,-0.290616,-0.035448
144,0.64379,-1.356769,0.912571,0.127478,0.977183,-0.169868,-0.721205,-0.126649,-0.079682,-0.0333,-0.099269,-0.025109
145,0.684137,-1.367701,0.958717,0.127466,0.979447,-0.156299,-0.707956,-0.311755,0.11186,0.073996,0.258911,-0.123792
146,0.728839,-1.373695,1.010123,0.130411,0.980638,-0.146065,-0.447829,-0.236439,0.232153,-0.016076,0.41284,-0.277199
147,0.764383,-1.372198,1.045359,0.136535,0.980344,-0.142398,0.0064,0.294152,0.350014,-0.000778,0.166949,-0.400663
148,0.790018,-1.363589,1.062732,0.146131,0.978609,-0.144787,0.332503,0.529189,0.431039,0.053668,0.087614,-0.315327
149,0.755513,-1.34594,1.026991,0.15287,0.974826,-0.162292,1.271656,-0.278787,0.274128,0.073219,0.239652,-0.035279
150,0.67016,-1.321375,0.955498,0.15331,0.969055,-0.193447,1.505149,-1.174897,0.12522,0.288631,0.476517,0.244732
151,0.579073,-1.29766,0.892489,0.147616,0.962929,-0.225766,1.318408,-1.579475,-0.035799,0.479612,0.693275,0.375943
152,0.505483,-1.284686,0.847884,0.136656,0.959349,-0.246919,0.509347,-1.401078,-0.25746,0.463213,0.239275,0.296083
153,0.479094,-1.284572,0.841619,0.130144,0.959317,-0.250537,-0.14482,-0.865376,0.07591,0.351179,0.075428,0.106631
154,0.491165,-1.28234,0.866855,0.134168,0.958684,-0.250835,0.044039,-0.399173,0.541309,0.170626,0.283305,0.0872
155,0.522989,-1.276809,0.906088,0.144727,0.957096,-0.251029,-0.241799,-0.343991,0.575561,0.068362,0.019909,0.238898
156,0.563909,-1.28477,0.956866,0.150798,0.959373,-0.23845,-0.974755,-0.346863,0.331163,0.044988,0.171807,0.257981
157,0.615979,-1.303075,1.010787,0.15283,0.964376,-0.215906,-1.238525,0.242253,0.023054,0.119081,0.471995,0.24264
158,0.698362,-1.322208,1.084683,0.158184,0.969261,-0.188429,-1.329144,0.713603,0.242939,0.238865,0.299889,0.16609
159,0.794265,-1.33667,1.167021,0.165482,0.972717,-0.162573,-1.14204,0.749384,0.190789,0.197967,-0.059723,0.121039
160,0.875113,-1.353169,1.239422,0.165726,0.976412,-0.138371,-1.183063,0.413711,-0.278017,0.120208,-0.183398,0.162251
161,0.945972,-1.376157,1.304929,0.156856,0.981117,-0.113127,-1.260009,0.320385,-0.58181,0.044255,-0.315621,0.136809
162,1.020246,-1.401359,1.373571,0.143694,0.98568,-0.088208,-1.154421,0.336855,-0.795806,-0.008165,-0.375054,0.076245
163,1.084848,-1.428099,1.432648,0.12573,0.989836,-0.06641,-1.027832,0.293536,-0.994624,0.076648,-0.359358,0.120029
164,1.169238,-1.455201,1.512992,0.106136,0.993326,-0.045069,-1.059293,0.188141,-0.984026,0.148335,-0.383356,0.080713
165,1.295277,-1.479241,1.637481,0.087943,0.995812,-0.024862,-0.941768,0.079769,-0.891199,0.142602,-0.336479,0.006063
166,1.4617,-1.499041,1.80236,0.071218,0.997427,-0.007801,-0.807458,0.139674,-0.803812,0.029307,-0.219656,-0.084439
167,1.66489,-1.515489,2.000743,0.05497,0.998471,0.005188,-0.487369,0.347491,-0.837094,0.089348,-0.079556,-0.009323
168,1.895048,-1.531831,2.220774,0.036835,0.999241,0.012381,-0.314276,0.567699,-0.910942,0.32103,-0.067951,0.004206
169,2.347353,-1.541995,2.66549,0.020451,0.999585,0.020092,-0.397587,0.248761,-0.733791,0.480785,-0.068616,-0.141018
170,2.848385,-1.541794,-3.117676,0.008342,0.999579,0.027632,-0.363442,-0.024874,-0.532376,0.509648,0.102899,-0.138548
171,-3.125064,-1.535207,-2.805963,-0.000586,0.999367,0.03547,-0.425221,-0.113586,-0.405575,0.543769,0.157494,-0.094918
172,-3.012696,-1.526611,-2.687327,-0.005667,0.999024,0.043718,-0.378825,-0.448233,-0.14204,0.615438,0.361282,-0.000276
173,-3.052028,-1.521357,-2.715269,-0.004413,0.998778,0.049144,-0.205022,-0.6938,0.111589,0.689457,0.28296,0.19521
174,3.128301,-1.521261,-2.798004,0.000657,0.998773,0.049438,0.182688,-1.171887,0.252711,0.619719,0.29624,0.252808
175,2.889142,-1.528163,-3.00536,0.010626,0.999091,0.041193,0.484032,-2.00697,0.500508,0.22999,0.197274,0.164815
176,2.415027,-1.54003,2.851285,0.020365,0.999527,0.022915,1.105425,-2.558095,0.322889,0.07311,0.199219,0.298344
177,1.413174,-1.544883,1.900018,0.025466,0.999664,-0.004048,1.333655,-2.451911,0.211116,0.123643,0.169998,0.362385
178,0.785513,-1.527924,1.315638,0.030256,0.999081,-0.030249,1.181426,-2.018302,0.332342,0.177401,0.159687,0.319403
179,0.597182,-1.505765,1.163987,0.036514,0.997886,-0.053697,1.089414,-1.758377,0.412551,0.205887,0.198021,0.191972
180,0.505295,-1.482627,1.106353,0.042607,0.996116,-0.077019,1.106633,-1.714803,0.423298,0.229992,0.37069,0.156639
181,0.435567,-1.460717,1.073697,0.04634,0.993947,-0.099576,1.003543,-1.999391,0.28621,0.301804,0.306651,0.182309
182,0.363604,-1.44356,1.046952,0.045121,0.991916,-0.118577,0.738714,-2.432527,0.141774,0.298339,0.192303,0.238236
183,0.304572,-1.4326,1.039981,0.041305,0.990466,-0.131398,0.419591,-2.676512,0.161222,0.197052,0.097455,0.255833
184,0.276338,-1.425364,1.065092,0.039534,0.989443,-0.139405,0.239816,-2.602096,0.355355,0.146028,0.043485,0.250382
185,0.282054,-1.419993,1.121233,0.041809,0.988651,-0.144279,0.069099,-2.447671,0.51313,0.173172,-0.099765,0.184623
186,0.294931,-1.418339,1.185042,0.044139,0.988401,-0.145293,-0.122137,-2.569258,0.448925,0.17188,-0.153013,0.153304
187,0.291933,-1.419586,1.237263,0.043348,0.98859,-0.144243,-0.195374,-2.861394,0.30885,0.237002,-0.250781,0.129243
188,0.267811,-1.422551,1.274534,0.03908,0.989032,-0.142418,-0.248475,-3.181306,0.171089,0.153913,-0.345828,0.222527
189,0.232883,-1.427412,1.306256,0.032973,0.989738,-0.139015,-0.304772,-3.354784,0.179464,0.135698,-0.395118,0.244362
190,0.20465,-1.433214,1.344675,0.027868,0.990551,-0.134266,-0.368534,-3.269459,0.208819,0.088557,-0.395854,0.28281
191,0.179395,-1.440107,1.382467,0.023249,0.991472,-0.128203,-0.395988,-3.020943,0.155966,0.069524,-0.362505,0.256865
192,0.15743,-1.447841,1.415482,0.019225,0.99245,-0.121105,-0.428979,-2.545644,0.138035,0.066072,-0.328739,0.212444
193,0.147883,-1.457532,1.452413,0.016649,0.993592,-0.111761,-0.592795,-2.184009,0.153519,0.009214,-0.235795,0.084143
194,0.157761,-1.470376,1.499359,0.015745,0.994962,-0.098975,-0.695845,-1.633879,0.13073,0.04999,-0.202649,-0.010812
195,0.160808,-1.483126,1.531861,0.014014,0.996159,-0.086393,-0.597178,-1.424855,-0.011991,0.102213,-0.149129,-0.054629
196,0.117456,-1.491474,1.51946,0.009281,0.996856,-0.078654,-0.27546,-1.664068,-0.142965,0.278118,0.094606,-0.155599
197,0.056544,-1.490563,1.496107,0.004527,0.996783,-0.079981,0.283744,-1.985016,-0.020075,0.383443,0.194684,-0.164617
198,0.056004,-1.479483,1.532875,0.005102,0.995834,-0.091012,0.625924,-1.698932,0.334462,0.428354,0.181519,-0.22454
199,0.131576,-1.46788,1.638361,0.013475,0.994709,-0.101819,0.43472,-1.3876,0.698059,0.432875,0.155209,-0.415607
200,0.294962,-1.458067,1.831364,0.032694,0.993653,-0.107608,0.215533,-1.52911,1.377167,0.503118,-0.138871,-0.181302
201,0.446615,-1.437662,2.020683,0.057324,0.991151,-0.119702,0.709385,-2.02514,1.384457,0.478046,-0.06804,0.127622
202,0.503669,-1.414099,2.126777,0.075311,0.987748,-0.136662,0.603509,-2.528866,1.172855,0.306448,0.655105,0.475087
203,0.551988,-1.395216,2.224286,0.09159,0.984625,-0.148723,0.211644,-2.185302,1.109857,0.088326,1.341943,0.606975
204,0.609289,-1.398162,2.318448,0.098297,0.985136,-0.140855,-1.046461,-1.647058,0.267166,-0.265427,0.329836,0.159058
205,0.627828,-1.418045,2.366054,0.089366,0.988356,-0.123128,-0.759661,-1.323043,-0.555913,-0.246851,-0.617186,0.001851
206,0.538676,-1.425536,2.301756,0.074247,0.989468,-0.124236,0.326251,-1.285596,-0.472532,-0.093321,-0.632642,0.02545
207,0.458203,-1.416766,2.246609,0.067857,0.988161,-0.137582,0.587374,-1.297131,0.053804,0.355742,-0.220476,0.314523
208,0.466168,-1.409641,2.2794,0.072114,0.987043,-0.143323,-0.111036,-1.151955,0.583919,0.569656,0.30234,0.349301
209,0.570009,-1.415257,2.406083,0.083588,0.987928,-0.130407,-1.089445,-1.004325,0.743538,0.479446,0.499926,0.272985
210,0.725928,-1.429595,2.583344,0.093411,0.990048,-0.105238,-1.401895,-0.95441,0.520169,0.010151,0.169056,-0.00345
211,0.871917,-1.440999,2.748931,0.099073,0.991588,-0.083259,-1.047147,-0.87145,0.245872,0.194475,0.076848,0.095634
212,0.993692,-1.449109,2.888719,0.101709,0.992605,-0.066216,-0.922122,-0.862158,0.211482,0.19477,0.027155,0.101647
213,1.14075,-1.453551,3.054769,0.106303,0.993135,-0.048759,-1.007071,-0.893225,0.328433,0.178533,-0.057618,0.096244
214,1.308106,-1.454138,-3.04254,0.112377,0.993203,-0.030219,-1.042004,-0.84087,0.319576,-0.015286,-0.314767,0.093909
215,1.481358,-1.453668,-2.852886,0.116368,0.993148,-0.010436,-1.109903,-0.693983,0.142657,-0.059529,-0.274536,0.085707
216,1.654585,-1.453714,-2.666413,0.11638,0.993154,0.009774,-1.0507,-0.559084,-0.077156,0.034637,-0.126241,0.002433
217,1.811328,-1.453953,-2.496624,0.113195,0.993182,0.027765,-0.930824,-0.620694,-0.224722,0.135981,-0.183993,-0.021188
218,1.956888,-1.454159,-2.336271,0.107781,0.993206,0.043812,-0.865769,-0.731287,-0.32988,0.139152,-0.294139,-0.045811
219,2.100553,-1.452426,-2.176683,0.101881,0.993002,0.059661,-0.890249,-0.716296,-0.327934,0.114672,-0.26937,-0.061797
220,2.237309,-1.447703,-2.026763,0.096482,0.992434,0.075892,-0.847769,-0.517259,-0.322551,0.094421,-0.19031,-0.085902
221,2.356332,-1.44337,-1.899612,0.089828,0.991892,0.089853,-0.663926,-0.267308,-0.384612,0.190568,-0.108363,-0.100473
222,2.446998,-1.439522,-1.804389,0.083765,0.991396,0.100547,-0.492372,-0.187459,-0.25533,0.354284,-0.101213,-0.123481
223,2.48579,-1.43455,-1.75854,0.082808,0.990733,0.107626,-0.314465,-0.450161,0.017578,0.377855,-0.091242,-0.165808
224,2.470788,-1.430561,-1.759587,0.08687,0.990183,0.109468,-0.03533,-0.851259,0.180275,0.303496,0.040441,-0.112886
225,2.407348,-1.429911,-1.803566,0.094066,0.990092,0.104217,0.296151,-1.048874,0.293939,0.246129,0.016133,-0.003952
226,2.290525,-1.430819,-1.899183,0.104896,0.990219,0.091951,0.582298,-1.169455,0.36339,0.229195,-0.067185,0.148772
227,2.102326,-1.429602,-2.05662,0.121287,0.990049,0.071314,0.923642,-1.903412,0.595314,0.229314,0.070559,0.102972
228,1.861453,-1.423811,-2.255712,0.14029,0.989217,0.041965,1.346228,-2.229132,0.964015,0.04515,0.214228,0.107587
229,1.610561,-1.410522,-2.469079,0.159442,0.987184,0.006344,1.547292,-1.808394,0.801443,-0.115512,0.339019,0.08823
230,1.393791,-1.397254,-2.660313,0.169956,0.984979,-0.030401,1.678143,-1.11371,0.391269,-0.046848,0.59252,0.056753
231,1.204008,-1.383102,-2.838338,0.174166,0.982437,-0.06691,1.699434,-0.606993,0.195284,0.151685,0.556488,0.051285
232,1.054542,-1.366589,-2.975362,0.176348,0.979222,-0.100095,1.502952,-0.877975,0.1996,0.505994,0.408046,0.010129
233,0.958739,-1.3466,-3.051931,0.181954,0.974973,-0.127729,0.934154,-1.280045,0.541178,0.371772,0.393435,-0.021777
234,0.93151,-1.331308,-3.044328,0.190353,0.97146,-0.141515,0.090651,-1.958543,0.718821,0.20546,0.288657,-0.032069
235,0.931682,-1.322676,-2.998994,0.197101,0.969376,-0.146479,-0.27939,-2.27636,0.598071,-0.047779,0.205658,-0.034765
236,0.931979,-1.317984,-2.951603,0.200795,0.968213,-0.149132,-0.362154,-2.258692,0.514149,-0.102314,0.053287,0.013725
237,0.93141,-1.315413,-2.907549,0.202706,0.967567,-0.15073,-0.339427,-2.078222,0.384822,-0.08677,-0.114692,0.040165
238,0.922824,-1.313467,-2.877878,0.202906,0.967073,-0.153602,-0.192191,-1.724571,0.262551,-0.015314,-0.485323,0.140906
239,0.914306,-1.312866,-2.85448,0.20205,0.96692,-0.155679,-0.273997,-1.49279,0.17943,-0.044564,-0.560563,0.148813
240,0.919142,-1.315736,-2.821066,0.200595,0.967648,-0.153017,-0.505403,-1.287224,0.122003,-0.137286,-0.702923,0.133486
241,0.939023,-1.321344,-2.776961,0.199214,0.969048,-0.145792,-0.657958,-1.047007,0.121697,-0.223354,-0.700859,0.105402
242,0.97764,-1.327164,-2.719416,0.200014,0.970468,-0.134837,-0.784883,-0.746381,0.177041,-0.214007,-0.672739,0.107051
243,1.029981,-1.333939,-2.65302,0.201153,0.97208,-0.1208,-0.878626,-0.524287,0.1291,-0.195187,-0.642414,0.049908
244,1.088449,-1.340833,-2.584622,0.201926,0.973675,-0.105728,-0.826113,-0.321716,0.041613,-0.19924,-0.495174,0.002365
245,1.148068,-1.347187,-2.518151,0.202219,0.975103,-0.090968,-0.809794,-0.220695,0.072576,-0.150202,-0.434179,-0.019002
246,1.213864,-1.350282,-2.446728,0.204933,0.975785,-0.076421,-0.753739,-0.190559,0.212866,-0.100823,-0.39354,-0.044032
247,1.275232,-1.34874,-2.379757,0.210675,0.975447,-0.064147,-0.606063,-0.196932,0.346365,-0.041928,-0.181547,-0.156373
248,1.32105,-1.34438,-2.328761,0.21751,0.974477,-0.055481,-0.418387,-0.197669,0.367973,-0.012493,0.087825,-0.14534
249,1.349329,-1.33767,-2.296733,0.225367,0.972949,-0.050744,-0.188839,-0.072057,0.458078,0.019934,0.134961,-0.121742
250,1.377029,-1.327867,-2.268172,0.236035,0.970638,-0.046317,-0.291435,0.019389,0.588636,-0.041943,0.14182,-0.039773
251,1.423651,-1.317529,-2.221393,0.24785,0.968099,-0.036735,-0.588696,0.120513,0.599248,-0.088457,0.044978,-0.052025
252,1.475806,-1.309072,-2.170231,0.25757,0.965945,-0.02454,-0.497514,0.051674,0.419444,-0.115709,0.108014,-0.011531
253,1.463471,-1.306398,-2.176745,0.259815,0.96525,-0.027992,0.482992,-0.535142,0.064918,-0.071125,0.944601,0.066612
254,1.39302,-1.305259,-2.237409,0.258282,0.964952,-0.046406,0.826644,-0.510879,-0.173063,0.008701,0.83023,0.165578
255,1.330294,-1.307547,-2.29801,0.252721,0.965549,-0.06198,0.639101,-0.130401,-0.320139,-0.233922,0.115185,0.33885
256,1.282532,-1.309543,-2.343224,0.247624,0.966067,-0.073426,0.623808,-0.257878,-0.129939,0.173671,0.647687,0.112931
257,1.23971,-1.30585,-2.389915,0.247627,0.965107,-0.085119,0.416798,0.347365,0.007777,0.553398,0.689389,-0.09852
258,1.237159,-1.304287,-2.401262,0.248833,0.964696,-0.086244,0.160449,0.367089,0.092487,0.544471,0.239192,-0.348494
259,1.231607,-1.3013,-2.411268,0.251068,0.963905,-0.088583,0.103836,0.145585,0.123354,0.136581,-0.087806,-0.177759
260,1.2452,-1.298432,-2.401362,0.254867,0.963138,-0.086046,-0.173457,0.228332,0.183268,0.051194,-0.033206,-0.151747
261,1.270892,-1.297989,-2.378043,0.257401,0.963018,-0.079596,-0.399757,0.07941,0.059032,0.176025,0.054331,-0.064828
262,1.310145,-1.302849,-2.335807,0.2558,0.964316,-0.068227,-0.680306,-0.127539,-0.159508,0.261107,0.191049,-0.05395
263,1.356868,-1.310561,-2.282833,0.251432,0.966329,-0.054624,-0.8162,-0.256866,-0.200884,0.20682,-0.152944,-0.059481
264,1.412363,-1.315509,-2.218607,0.249349,0.967591,-0.039839,-0.850768,-0.412987,-0.023601,0.217844,-0.130936,-0.073671
265,1.463851,-1.317673,-2.154383,0.248987,0.968135,-0.02673,-0.771808,-0.618977,0.006057,0.071738,-0.127849,-0.097843
266,1.502787,-1.319887,-2.099734,0.247699,0.968687,-0.016872,-0.632982,-0.699979,-0.103965,-0.21976,-0.381758,-0.101323
267,1.525143,-1.324751,-2.066651,0.243304,0.969883,-0.011115,-0.254839,-0.301097,-0.282364,-0.217532,-0.435093,-0.08738
268,1.521109,-1.331647,-2.07146,0.236571,0.97154,-0.011764,0.206587,0.203654,-0.36845,-0.123107,-0.444196,-0.034332
269,1.496161,-1.338516,-2.102834,0.229543,0.973144,-0.017164,0.382811,0.239283,-0.373674,-0.052312,-0.496826,-0.039049
270,1.459999,-1.345622,-2.141171,0.221895,0.974755,-0.024687,0.41679,-0.048401,-0.388023,0.043898,-0.433938,-0.059161
271,1.413258,-1.351246,-2.186338,0.215082,0.975995,-0.034167,0.492799,-0.156547,-0.315783,0.092612,-0.289029,-0.056272
272,1.354757,-1.354281,-2.243624,0.209823,0.976652,-0.046049,0.623846,-0.108357,-0.226267,0.09929,-0.204634,0.019743
273,1.290626,-1.353947,-2.305353,0.206755,0.97658,-0.059491,0.665173,-0.277342,-0.09437,0.087541,-0.230242,0.008725
274,1.218987,-1.349495,-2.368657,0.206047,0.975613,-0.075636,0.753522,-0.64578,0.058406,0.063286,-0.297146,0.110334
275,1.137822,-1.340405,-2.431814,0.207278,0.973577,-0.095809,0.877377,-1.184788,0.21165,-0.115756,-0.283636,0.206924
276,1.05193,-1.325676,-2.490623,0.210726,0.970108,-0.120337,1.016959,-1.519431,0.393583,-0.183382,-0.166779,0.152472
277,0.966944,-1.304118,-2.550426,0.21692,0.964651,-0.149633,1.359146,-1.158119,0.583517,-0.22342,0.100443,-0.015879
278,0.885879,-1.272945,-2.620169,0.227277,0.955969,-0.185646,1.970225,-0.426576,0.661624,-0.093793,0.669901,-0.206611
279,0.808722,-1.231931,-2.70404,0.24047,0.943132,-0.229506,2.419874,0.420775,0.690384,0.036782,0.938292,-0.171434
280,0.771134,-1.195994,-2.755334,0.255142,0.93058,-0.262527,1.478189,0.414834,0.595152,0.358276,0.906487,-0.136429
281,0.760337,-1.1751,-2.768607,0.265637,0.922728,-0.279297,0.638828,-0.052869,0.535409,0.177921,0.731157,-0.284699
282,0.77361,-1.164021,-2.750858,0.276447,0.918401,-0.283042,-0.128646,-0.194732,0.712896,0.107174,0.529993,-0.217904
283,0.81136,-1.161054,-2.70594,0.288907,0.917224,-0.274282,-0.741843,-0.147804,0.69787,0.061755,-0.074496,-0.16868
284,0.858936,-1.166053,-2.651625,0.298149,0.919204,-0.257233,-1.052985,-0.104046,0.414698,0.022911,-0.26596,-0.193008
285,0.900849,-1.176822,-2.602394,0.300888,0.923391,-0.238355,-1.071201,-0.228299,0.068626,-0.038544,-0.311986,-0.158191
286,0.931587,-1.191438,-2.561126,0.297207,0.928902,-0.220919,-1.089285,-0.473281,-0.189696,-0.167782,-0.522378,0.034746
287,0.962639,-1.209506,-2.515414,0.290099,0.935442,-0.201961,-1.276221,-0.623499,-0.290154,-0.212096,-0.626619,0.092876
288,1.006224,-1.230183,-2.457582,0.28222,0.94255,-0.17874,-1.463073,-0.455452,-0.327994,-0.218957,-0.71292,0.076277
289,1.066584,-1.252624,-2.388642,0.273896,0.949809,-0.151132,-1.554987,-0.120217,-0.432683,-0.251634,-0.613551,-0.000357
290,1.14182,-1.274085,-2.310347,0.26588,0.956303,-0.121609,-1.501949,0.081868,-0.399456,-0.255885,-0.538792,-0.063343
291,1.217765,-1.289649,-2.232047,0.260341,0.960738,-0.095927,-1.198048,-0.001982,-0.207083,-0.257518,-0.344481,-0.143178
292,1.279491,-1.295813,-2.168107,0.260084,0.96243,-0.077982,-0.774511,0.061362,0.101306,-0.108121,0.035816,-0.127554
293,1.331859,-1.293767,-2.118731,0.265721,0.961872,-0.064727,-0.568439,0.365299,0.371548,-0.007085,0.084637,-0.12111
294,1.384836,-1.286424,-2.075882,0.275711,0.959838,-0.051871,-0.450197,0.731724,0.54282,-0.016586,0.037995,-0.113138
295,1.429747,-1.276132,-2.045065,0.287528,0.9569,-0.040827,-0.256392,0.68722,0.581618,-0.077338,0.223642,-0.120703
296,1.429729,-1.265054,-2.051891,0.298006,0.953624,-0.04232,0.485552,0.219489,0.490192,-0.051881,0.390538,-0.058525
297,1.399344,-1.256104,-2.089012,0.30498,0.950892,-0.052808,0.54053,0.299269,0.205259,-0.069247,0.701574,0.196485
298,1.39347,-1.258033,-2.100265,0.30286,0.951487,-0.054275,0.005082,0.092119,-0.273575,-0.076236,0.318029,-0.018189
299,1.348816,-1.261869,-2.136956,0.296573,0.95266,-0.066936,0.903105,-0.703508,-0.286579,0.339932,1.358131,0.224193
300,1.300073,-1.263448,-2.183074,0.29151,0.953139,-0.080905,0.303022,-0.035879,-0.224328,0.705392,0.306505,0.000567
301,1.301014,-1.262208,-2.182716,0.292725,0.952763,-0.080945,-0.010887,0.03619,0.139787,0.324494,-0.232365,-0.383959
302,1.291038,-1.254772,-2.191793,0.298703,0.950479,-0.085815,0.345355,-0.095422,0.508844,-0.047101,-0.01603,-0.231049
303,1.283703,-1.240232,-2.198265,0.311289,0.945859,-0.091908,0.234864,-0.020243,0.718416,-0.16514,0.036013,-0.177562
304,1.290387,-1.227857,-2.194147,0.32312,0.94177,-0.093058,0.018357,0.262582,0.508238,-0.047882,0.189394,-0.071157
305,1.313154,-1.225597,-2.178834,0.327213,0.941008,-0.08622,-0.36231,0.474906,-0.043759,0.089551,0.138765,0.014885
306,1.348115,-1.233225,-2.151242,0.323015,0.943562,-0.073142,-0.632372,0.406645,-0.321159,0.172072,-0.053959,0.041816
307,1.392755,-1.242117,-2.109239,0.317687,0.94647,-0.057167,-0.820554,0.116327,-0.283646,0.228547,-0.086744,0.036522
308,1.442712,-1.248158,-2.056965,0.314469,0.948402,-0.0405,-0.867858,-0.026957,-0.108604,-0.051026,-0.139656,-0.05032
309,1.482374,-1.252721,-2.010956,0.311513,0.949839,-0.027617,-0.633992,-0.309693,-0.20168,-0.153813,-0.152751,-0.082277
310,1.497116,-1.259918,-1.987564,0.305061,0.952065,-0.022518,-0.237453,-0.351804,-0.403955,-0.319023,-0.208993,-0.039769
311,1.493593,-1.269511,-1.989311,0.29586,0.954956,-0.022887,0.112914,0.10974,-0.511058,-0.330986,-0.318329,-0.069154
312,1.476426,-1.280201,-2.017711,0.285244,0.958074,-0.026999,0.519346,0.718037,-0.601936,-0.198833,-0.47701,-0.026178
313,1.444728,-1.290977,-2.069409,0.273987,0.961105,-0.034725,0.717741,0.932582,-0.613644,-0.074021,-0.630615,-0.043369
314,1.401367,-1.300106,-2.131264,0.263564,0.963587,-0.045088,0.788927,0.703003,-0.539145,0.115632,-0.610681,-0.089037
315,1.346216,-1.30506,-2.199608,0.25602,0.964899,-0.058484,0.87974,0.457927,-0.336303,0.264503,-0.409769,-0.116306
316,1.285884,-1.3042,-2.267921,0.252824,0.964673,-0.074047,0.838902,0.157759,-0.094785,0.297026,-0.244077,-0.014698
317,1.23511,-1.298918,-2.319464,0.253548,0.963268,-0.088461,0.706238,-0.187779,0.117307,0.065269,-0.096889,0.058294
318,1.186622,-1.288592,-2.360301,0.258172,0.960444,-0.104369,0.739261,-0.635356,0.394781,-0.001549,0.020254,0.101287
319,1.132457,-1.270067,-2.399075,0.268208,0.955121,-0.125723,0.942155,-0.9231,0.781126,-0.109654,0.395175,0.087271
320,1.08824,-1.244259,-2.428636,0.284134,0.947159,-0.148848,1.029767,-0.688809,0.988673,-0.055771,0.552231,-0.075105
321,1.043287,-1.218348,-2.466359,0.298268,0.93853,-0.173764,1.245088,-0.329313,0.677796,0.016307,0.609428,-0.211017
322,0.99624,-1.198874,-2.514417,0.305053,0.931631,-0.197496,1.180213,-0.015175,0.231492,0.053056,0.595332,-0.314391
323,0.958582,-1.186329,-2.553154,0.306942,0.926998,-0.215541,0.782153,-0.165614,0.102854,0.178745,0.639713,-0.183248
324,0.933601,-1.176761,-2.572865,0.308578,0.923367,-0.228407,0.46864,-0.475045,0.23352,0.289124,0.63956,-0.161592
325,0.92383,-1.170302,-2.571401,0.311084,0.920868,-0.235001,-0.034442,-0.579914,0.254709,0.073453,0.396789,-0.127258
326,0.932551,-1.172063,-2.546715,0.311819,0.921553,-0.231313,-0.681449,-0.776497,0.159643,0.027812,0.071412,-0.14268
327,0.952479,-1.182242,-2.505556,0.308705,0.925458,-0.219604,-1.049565,-0.957746,-0.015748,-0.080922,-0.208463,-0.119034
328,0.97813,-1.196693,-2.457462,0.303111,0.930836,-0.204122,-1.200402,-0.913131,-0.119408,-0.276896,-0.401066,-0.006724
329,1.014418,-1.212497,-2.403995,0.297786,0.936495,-0.185198,-1.248738,-0.538937,-0.147999,-0.290294,-0.450258,-0.009214
330,1.065517,-1.227954,-2.34341,0.294154,0.941803,-0.162719,-1.299288,-0.118124,-0.111504,-0.26562,-0.521744,0.028732
331,1.130974,-1.241972,-2.2764,0.292192,0.946423,-0.137495,-1.303839,0.226247,-0.179275,-0.213426,-0.659008,0.011442
332,1.202752,-1.256657,-2.208186,0.2883,0.951063,-0.111173,-1.268554,0.366137,-0.294575,-0.220307,-0.629011,-0.033328
333,1.27416,-1.271407,-2.138507,0.28205,0.955517,-0.08621,-1.198707,0.170164,-0.364339,-0.215399,-0.431423,-0.042132
334,1.340372,-1.283052,-2.069976,0.276283,0.958886,-0.064814,-1.058295,-0.04491,-0.247715,-0.136818,-0.320001,-0.054129
335,1.402711,-1.289729,-2.00207,0.273465,0.96076,-0.046403,-0.957271,-0.187622,-0.078047,-0.120786,-0.155325,-0.090971
336,1.457144,-1.290409,-1.941966,0.274935,0.960948,-0.031382,-0.731979,-0.111743,0.197962,-0.129183,-0.060848,-0.128087
337,1.499417,-1.284087,-1.898782,0.28207,0.95918,-0.020168,-0.488676,0.152709,0.45356,-0.164074,0.114185,-0.17722
338,1.529851,-1.273684,-1.875879,0.292508,0.956186,-0.011984,-0.154636,0.540921,0.583582,-0.172819,0.253302,-0.198344
339,1.52369,-1.262924,-1.892039,0.30269,0.95298,-0.014269,0.547441,0.405915,0.436972,-0.137681,0.41732,-0.131666
340,1.479191,-1.256856,-1.946625,0.307508,0.951124,-0.028248,0.994377,0.312927,0.127224,-0.069608,0.945604,0.25974
341,1.436387,-1.257482,-2.001277,0.305427,0.951317,-0.041301,0.584363,0.566249,-0.262661,0.044549,0.402214,0.285671
342,1.427492,-1.262919,-2.021523,0.299923,0.952979,-0.043277,0.278334,0.353249,-0.277345,0.086582,0.170785,0.07468
343,1.386244,-1.263101,-2.065207,0.297713,0.953034,-0.055576,0.813089,-0.063977,-0.032725,0.385393,0.584426,-0.096875
344,1.342716,-1.259997,-2.108692,0.297892,0.952089,-0.069146,0.46343,-0.19503,0.009866,0.363393,0.195921,-0.143698
345,1.324223,-1.258733,-2.124166,0.29773,0.951702,-0.074937,0.200111,-0.118603,0.039976,0.285583,0.072437,-0.247039
346,1.318934,-1.255236,-2.130459,0.300551,0.950623,-0.07734,0.103463,0.134643,0.196005,-0.03517,0.024124,-0.137809
347,1.328155,-1.250373,-2.126963,0.305736,0.949102,-0.075675,-0.069673,0.371471,0.26179,0.050893,0.023844,-0.111703
348,1.351844,-1.247347,-2.110845,0.310244,0.948145,-0.069035,-0.301526,0.425978,0.15221,0.103468,-0.002344,-0.099056
349,1.383969,-1.247796,-2.08377,0.311883,0.948287,-0.058956,-0.481041,0.234311,0.020879,0.143241,-0.06253,-0.045765
350,1.41984,-1.249722,-2.047675,0.311991,0.948897,-0.047458,-0.651693,-0.010035,0.00184,0.093481,-0.099745,-0.004971
351,1.45999,-1.25208,-2.003303,0.31142,0.949638,-0.034649,-0.688355,-0.139695,-0.042047,0.021115,-0.093635,-0.0219
352,1.48769,-1.253689,-1.971511,0.310736,0.950141,-0.025884,-0.427417,-0.076391,-0.115081,-0.143423,-0.10717,-0.027019
353,1.497394,-1.257738,-1.962938,0.307133,0.951396,-0.022585,0.039642,0.221821,-0.237183,-0.260715,-0.320888,-0.069517
354,1.489121,-1.263965,-1.983838,0.301024,0.953295,-0.024641,0.417409,0.787898,-0.401912,-0.243224,-0.45177,-0.078371
355,1.47049,-1.271987,-2.023705,0.292895,0.955688,-0.029478,0.612791,1.005803,-0.452101,-0.155337,-0.628387,-0.01436
356,1.443897,-1.278229,-2.069673,0.286084,0.957507,-0.0365,0.626126,0.75287,-0.348066,-0.040784,-0.547457,-0.057021
357,1.406874,-1.28161,-2.11998,0.281341,0.958476,-0.046536,0.751223,0.470668,-0.214371,0.051362,-0.409877,-0.031879
358,1.356111,-1.281582,-2.181217,0.278643,0.958468,-0.060757,0.907308,0.366542,-0.151191,0.187238,-0.195346,0.008526
359,1.30182,-1.279929,-2.242094,0.276462,0.957996,-0.076209,0.821372,0.054493,-0.095844,0.238903,-0.170322,0.126532
360,1.246726,-1.274853,-2.295157,0.276453,0.956527,-0.092864,0.842178,-0.357506,0.086427,0.026083,-0.278228,0.124358
361,1.183387,-1.2646,-2.349101,0.279086,0.953487,-0.113876,0.984539,-0.765745,0.288771,-0.171069,-0.126003,0.081664
362,1.111257,-1.246094,-2.406134,0.285922,0.947746,-0.141496,1.317506,-0.893916,0.617068,-0.177127,0.296334,-0.061111
363,1.046591,-1.218515,-2.46053,0.298702,0.938588,-0.172697,1.518898,-0.491772,0.840153,0.0387,0.610988,-0.163225
364,0.98965,-1.187508,-2.517109,0.312572,0.92744,-0.2053,1.73518,0.001313,0.687208,0.24358,0.875645,-0.332221
365,0.945297,-1.163017,-2.567619,0.321484,0.918004,-0.23219,1.292125,0.093616,0.366733,0.075351,0.924419,-0.329242
366,0.918295,-1.145532,-2.596329,0.327803,0.91093,-0.250493,0.809915,-0.152854,0.349793,0.045641,0.967961,-0.247355
367,0.903408,-1.134162,-2.606813,0.332152,0.90618,-0.26174,0.319904,-0.284053,0.284582,0.046892,0.383127,-0.112421
368,0.90343,-1.132917,-2.597598,0.333044,0.905653,-0.26243,-0.408041,-0.560861,0.075821,0.075693,-0.230345,-0.159338
369,0.910766,-1.145801,-2.570242,0.325714,0.91104,-0.252804,-1.045542,-1.028119,-0.269864,0.037399,-0.359298,-0.16869
370,0.920161,-1.165365,-2.536697,0.31383,0.918932,-0.23889,-1.141076,-1.036902,-0.388024,-0.077471,-0.393374,-0.129839
371,0.935271,-1.185719,-2.499718,0.302286,0.926769,-0.22297,-1.227032,-0.913114,-0.367419,-0.134485,-0.300472,0.00158
372,0.964318,-1.204506,-2.45105,0.294274,0.933662,-0.204134,-1.262353,-0.717869,-0.145726,-0.226067,-0.241325,0.038454
373,1.005979,-1.217614,-2.395536,0.292157,0.938277,-0.185134,-1.125114,-0.385647,0.037473,-0.247555,-0.280684,0.093932
374,1.053607,-1.23016,-2.340879,0.290384,0.942542,-0.165181,-1.15403,-0.088782,-0.116933,-0.23652,-0.343085,0.073765
375,1.112766,-1.244996,-2.28025,0.287066,0.947395,-0.141523,-1.26321,0.199653,-0.224887,-0.218035,-0.439171,0.037214
376,1.183407,-1.259777,-2.210926,0.283341,0.952022,-0.115605,-1.294144,0.211437,-0.214436,-0.243302,-0.682216,-0.068431
377,1.254273,-1.271132,-2.138661,0.280523,0.955436,-0.091881,-1.140633,0.039022,-0.121276,-0.260702,-0.555609,-0.10279
378,1.315448,-1.277472,-2.074675,0.279748,0.957288,-0.073027,-0.895046,-0.017774,0.016176,-0.229546,-0.425733,-0.119508
379,1.365458,-1.277667,-2.02221,0.282867,0.957344,-0.058914,-0.642087,0.015504,0.265728,-0.082,-0.025902,-0.142105
380,1.406772,-1.271737,-1.981462,0.290655,0.955614,-0.048107,-0.475608,0.185786,0.427974,-0.061285,0.006148,-0.12209
381,1.44119,-1.26497,-1.949803,0.298545,0.953598,-0.038912,-0.317962,0.099072,0.398208,-0.112601,0.093566,-0.128584
382,1.428607,-1.257001,-1.958248,0.305545,0.951169,-0.04374,0.545418,-0.383044,0.335422,-0.193881,0.7224,0.069635
383,1.378538,-1.248893,-2.008335,0.310534,0.948635,-0.060449,0.943191,0.171056,0.21785,-0.301012,0.83823,0.362085
384,1.327543,-1.245241,-2.074763,0.310409,0.947473,-0.077034,1.219846,0.571123,-0.168495,-0.246918,0.6939,0.333763
385,1.258919,-1.244888,-2.159125,0.304715,0.94736,-0.09824,1.150557,0.818412,-0.410714,0.643451,0.648602,-0.063839
386,1.238,-1.241345,-2.200821,0.305763,0.94622,-0.105688,0.55374,0.768333,0.10861,0.734108,0.004723,-0.52656
387,1.204625,-1.236006,-2.242734,0.306779,0.944479,-0.117639,0.72557,0.013744,0.053093,0.457351,-0.119711,-0.447989
388,1.186049,-1.228523,-2.257723,0.311084,0.941994,-0.125966,0.190924,-0.207112,0.335925,0.055509,0.146507,-0.177958
389,1.195298,-1.222889,-2.251018,0.317168,0.940088,-0.125029,-0.12921,0.397324,0.241047,0.057389,0.323248,-0.06032
390,1.230253,-1.224278,-2.230238,0.320113,0.940561,-0.113431,-0.473282,0.949328,-0.040869,0.087312,0.267584,-0.043246
391,1.28301,-1.228228,-2.195811,0.322083,0.941895,-0.095338,-0.690104,0.997608,0.061172,0.261031,-0.01706,-0.051009
392,1.342373,-1.228915,-2.149282,0.326541,0.942126,-0.075915,-0.808871,0.600057,0.214676,0.153836,-0.135729,-0.049833
393,1.397483,-1.228262,-2.096715,0.330833,0.941906,-0.057919,-0.869566,0.106163,0.168951,0.078606,-0.185452,-0.05991
394,1.439673,-1.233145,-2.051427,0.328417,0.943535,-0.043312,-0.711486,-0.04924,-0.26558,-0.208712,-0.223336,-0.032143
395,1.467146,-1.241052,-2.022732,0.322053,0.946125,-0.033501,-0.345593,0.09151,-0.349731,-0.22458,-0.216145,-0.066215
396,1.469345,-1.247559,-2.026256,0.315995,0.948212,-0.032169,0.226348,0.375965,-0.319395,-0.156586,-0.159485,-0.138043
397,1.454018,-1.253547,-2.051833,0.309819,0.950097,-0.036345,0.396635,0.478873,-0.361066,-0.063146,-0.459619,-0.013841
398,1.436229,-1.260311,-2.080846,0.302749,0.952185,-0.040988,0.407505,0.482198,-0.402655,-0.03186,-0.497443,0.006976
399,1.412958,-1.266168,-2.113104,0.296201,0.953958,-0.047144,0.4724,0.289874,-0.315429,-0.008405,-0.491693,-0.017278
400,1.379165,-1.268968,-2.151622,0.291816,0.954795,-0.056616,0.598999,0.089753,-0.196784,-0.019614,-0.449027,-0.079096
401,1.334049,-1.269145,-2.201184,0.288801,0.954847,-0.06968,0.779328,0.139016,-0.15179,0.082918,-0.348356,-0.097541
402,1.283471,-1.267155,-2.257655,0.286731,0.954254,-0.08473,0.845315,0.158803,-0.095807,0.133877,-0.305145,-0.034594
403,1.23398,-1.262617,-2.309931,0.286272,0.952887,-0.100241,0.827572,-0.112183,0.020852,0.10391,-0.287131,0.059332
404,1.181879,-1.252692,-2.356113,0.289401,0.94983,-0.118594,0.864542,-0.588706,0.341119,0.046887,-0.018525,0.118075
405,1.129041,-1.234332,-2.395069,0.298451,0.943928,-0.141145,0.974671,-0.844249,0.747072,-0.023304,0.529415,0.092882
406,1.090395,-1.209166,-2.421717,0.313747,0.935321,-0.1635,1.002755,-0.566057,0.949874,-0.11349,0.686581,-0.054121
407,1.049208,-1.185926,-2.457193,0.325511,0.926847,-0.187062,1.18742,-0.286837,0.494675,-0.070719,0.482897,-0.204326
408,1.001518,-1.171864,-2.506126,0.327169,0.921476,-0.209372,1.115023,-0.084125,-0.051951,0.024791,0.390978,-0.264139
409,0.961649,-1.161256,-2.548007,0.326563,0.917304,-0.227827,0.883241,-0.01035,0.080931,0.09728,0.787042,-0.336428
410,0.943081,-1.14841,-2.568859,0.331787,0.912113,-0.240752,0.647083,-0.039463,0.37308,0.226608,0.644283,-0.27997
411,0.93005,-1.13671,-2.577484,0.337155,0.907255,-0.251418,0.354392,-0.414258,0.3149,0.095081,0.440753,-0.201066
412,0.91826,-1.134107,-2.574946,0.336042,0.906157,-0.256808,-0.175371,-0.837343,0.017981,0.056765,0.274675,-0.230299
413,0.912665,-1.141751,-2.560926,0.32911,0.909363,-0.25444,-0.60157,-0.901148,-0.172922,-0.042932,0.165023,-0.121994
414,0.918533,-1.153321,-2.538326,0.322214,0.914115,-0.246101,-0.776418,-0.631046,-0.16808,-0.138452,0.005944,-0.023003
415,0.935523,-1.167136,-2.509111,0.316152,0.919629,-0.233075,-0.950128,-0.420298,-0.238999,-0.19042,-0.218137,0.060116
416,0.961291,-1.184922,-2.473283,0.308591,0.92647,-0.215453,-1.150859,-0.33603,-0.359082,-0.256955,-0.402574,0.092879
417,0.996876,-1.205432,-2.428798,0.300037,0.933994,-0.193978,-1.300649,-0.246874,-0.413654,-0.254245,-0.465915,0.085793
418,1.04701,-1.226796,-2.373271,0.292033,0.941413,-0.168678,-1.427608,0.001733,-0.403109,-0.265269,-0.54676,0.058296
419,1.113875,-1.247841,-2.30557,0.284805,0.948301,-0.140016,-1.490599,0.218248,-0.414508,-0.197051,-0.684172,-0.043624
420,1.193253,-1.267124,-2.228275,0.277957,0.954245,-0.110229,-1.454028,0.315998,-0.382331,-0.172458,-0.67121,-0.102906
421,1.274735,-1.28219,-2.14875,0.272223,0.958641,-0.083035,-1.248958,0.231779,-0.278242,-0.152289,-0.555657,-0.186328
422,1.344822,-1.289851,-2.078913,0.270203,0.960794,-0.06212,-0.905226,0.078191,0.003162,-0.102174,-0.416116,-0.218932
423,1.394155,-1.288581,-2.027398,0.274138,0.960441,-0.048934,-0.586999,-0.02535,0.312097,-0.047942,-0.256187,-0.189317
424,1.433433,-1.281589,-1.986842,0.282494,0.95847,-0.03905,-0.493604,0.029059,0.477186,-0.06234,-0.100347,-0.132733
425,1.469388,-1.273409,-1.950175,0.291507,0.956105,-0.029663,-0.460263,0.05889,0.44747,-0.122867,0.030879,-0.139252
426,1.492829,-1.265608,-1.925826,0.299549,0.953791,-0.023403,-0.128236,-0.156276,0.421223,-0.192387,0.166144,-0.159413
427,1.462492,-1.257056,-1.951449,0.3068,0.951186,-0.033358,0.763604,-0.24963,0.349592,-0.132804,0.585801,-0.029966
428,1.403111,-1.249405,-2.015938,0.311447,0.948797,-0.05272,1.110642,0.287035,0.107774,0.017655,0.915598,0.377626
429,1.374687,-1.248995,-2.056943,0.310204,0.948667,-0.061626,0.356346,0.524974,-0.132808,0.037102,0.265719,0.252971
430,1.333484,-1.248593,-2.103669,0.307772,0.94854,-0.074441,0.893137,0.083141,-0.129561,0.233579,0.887245,0.019845
431,1.303258,-1.242895,-2.136481,0.31059,0.94672,-0.085136,0.385999,-0.032978,0.310358,0.606845,0.616146,-0.011986
432,1.28714,-1.235515,-2.152363,0.315877,0.944318,-0.092084,0.391697,-0.022063,0.239881,0.455333,0.185992,-0.16106
433,1.273239,-1.228017,-2.169082,0.321327,0.941824,-0.098539,0.299547,0.178323,0.291323,0.035668,0.169473,-0.207812
434,1.281395,-1.222475,-2.168233,0.327117,0.939947,-0.097403,-0.072283,0.478106,0.237067,0.033066,0.190287,-0.025812
435,1.309086,-1.221517,-2.150568,0.330558,0.93962,-0.088541,-0.391162,0.565153,0.057403,0.117547,0.158891,-0.009832
436,1.347925,-1.224843,-2.119236,0.330697,0.940753,-0.074948,-0.654974,0.372707,-0.072379,0.107948,-0.147692,0.051144
437,1.392241,-1.230039,-2.074446,0.328878,0.942502,-0.059355,-0.848774,-0.067445,-0.122307,0.06573,-0.198224,0.045881
438,1.434513,-1.236403,-2.024239,0.325144,0.94461,-0.044588,-0.852669,-0.308899,-0.209619,0.034308,-0.172759,0.044893
439,1.468962,-1.242694,-1.981835,0.320569,0.946656,-0.032758,-0.610031,-0.242493,-0.243261,-0.151196,-0.171952,-0.019458
440,1.484663,-1.248737,-1.962185,0.315338,0.948586,-0.027229,-0.180189,-0.075497,-0.286406,-0.191238,-0.17469,-0.034142
441,1.48199,-1.254982,-1.966438,0.309357,0.950544,-0.027545,0.161448,0.155775,-0.343068,-0.225144,-0.246747,-0.05711
442,1.465223,-1.261938,-1.990357,0.302269,0.952681,-0.032031,0.429473,0.387305,-0.400245,-0.170418,-0.428038,-0.076032
443,1.436827,-1.268764,-2.031334,0.294785,0.954734,-0.03973,0.633308,0.623145,-0.414078,-0.150101,-0.477134,-0.087818
444,1.401196,-1.274366,-2.082836,0.287906,0.956385,-0.049303,0.739023,0.683339,-0.373893,-0.070774,-0.516337,-0.073454
445,1.359922,-1.278139,-2.139395,0.282097,0.957481,-0.060385,0.772559,0.603107,-0.319077,0.102379,-0.499839,-0.05961
446,1.317739,-1.279819,-2.193559,0.277741,0.957964,-0.071824,0.719988,0.400485,-0.218771,0.182265,-0.446444,-0.051604
447,1.275939,-1.278229,-2.241753,0.275955,0.957507,-0.08381,0.673037,0.102717,-0.039256,0.191559,-0.38695,-0.047614
448,1.235979,-1.273039,-2.282039,0.277076,0.955997,-0.096399,0.599616,-0.166132,0.124013,0.069878,-0.202579,0.028299
449,1.19899,-1.265285,-2.312802,0.28022,0.953693,-0.10927,0.54612,-0.537214,0.261916,0.030739,-0.132374,0.069841
450,1.156016,-1.25359,-2.339316,0.285457,0.95011,-0.125694,0.677256,-1.073231,0.460071,0.012913,-0.046302,0.077858
451,1.106415,-1.234441,-2.36769,0.295089,0.943964,-0.147815,0.890156,-1.070043,0.809795,-0.069488,0.464606,0.018192
452,1.062371,-1.208056,-2.397991,0.309948,0.934928,-0.172732,1.203301,-0.594362,0.928877,0.054508,0.670709,-0.227338
453,1.015676,-1.182533,-2.440462,0.321726,0.925568,-0.199526,1.331417,-0.27357,0.515959,0.18894,0.733978,-0.389906
454,0.971509,-1.165209,-2.481911,0.325797,0.918871,-0.222549,0.982584,-0.320177,0.219821,0.097925,0.83647,-0.365616
455,0.948011,-1.152622,-2.500339,0.329846,0.913832,-0.23687,0.485404,-0.380949,0.396956,0.175372,0.825472,-0.182762
456,0.943718,-1.141985,-2.495461,0.336679,0.909461,-0.243974,0.074953,-0.465088,0.481791,0.039755,0.471414,-0.139693
457,0.947107,-1.140265,-2.47858,0.338774,0.908744,-0.243746,-0.437968,-0.733637,0.152744,0.013109,0.13305,-0.141859
458,0.951341,-1.150136,-2.452745,0.332482,0.91282,-0.237089,-0.853958,-1.079055,-0.218255,-0.087838,-0.275552,-0.094912
459,0.954995,-1.166944,-2.424075,0.320776,0.919554,-0.226978,-0.995209,-1.119367,-0.403993,-0.130911,-0.290541,-0.071759
460,0.965772,-1.186185,-2.391112,0.308592,0.926944,-0.213403,-1.121,-0.87704,-0.422274,-0.180937,-0.286609,-0.01322
461,0.992237,-1.205987,-2.347046,0.298701,0.934192,-0.195085,-1.273977,-0.641442,-0.332845,-0.221888,-0.24303,0.004396
462,1.035065,-1.224184,-2.291894,0.292111,0.940529,-0.17341,-1.293207,-0.312596,-0.235124,-0.227307,-0.221993,-0.009177
463,1.089222,-1.241772,-2.232362,0.286363,0.946358,-0.149657,-1.292303,0.026558,-0.334897,-0.195191,-0.336663,-0.024644
464,1.153531,-1.261409,-2.168355,0.278343,0.95252,-0.123388,-1.356747,0.243685,-0.497995,-0.152931,-0.408071,-0.057917
465,1.227507,-1.280606,-2.096649,0.269429,0.958189,-0.096305,-1.30351,0.261445,-0.455987,-0.096654,-0.495634,-0.094781
466,1.301771,-1.29362,-2.022867,0.263786,0.961832,-0.072728,-1.098322,0.095742,-0.221469,-0.063362,-0.399912,-0.126109
467,1.362333,-1.299921,-1.958253,0.26177,0.963537,-0.055374,-0.820932,-0.19572,-0.035424,-0.064703,-0.352087,-0.18068
468,1.405448,-1.30089,-1.906819,0.262992,0.963796,-0.043886,-0.610228,-0.361279,0.15854,-0.135933,-0.301839,-0.133665
469,1.44091,-1.297532,-1.862869,0.26759,0.962895,-0.034953,-0.554173,-0.330081,0.299897,-0.193997,-0.279973,-0.12827
470,1.47806,-1.292323,-1.817324,0.273694,0.961476,-0.025454,-0.573789,-0.399346,0.322281,-0.187025,-0.006047,-0.064816
471,1.489896,-1.289793,-1.793901,0.276399,0.960778,-0.02241,-0.052743,-0.659679,-0.027327,-0.163652,0.093742,-0.06896
472,1.442632,-1.290045,-1.827523,0.274793,0.960847,-0.035413,0.71095,-0.59047,-0.148132,-0.18768,1.03662,0.123776
473,1.384798,-1.297947,-1.886663,0.264816,0.963007,-0.049831,0.649126,0.066011,-0.694198,-0.332351,0.441732,0.34338
474,1.305709,-1.310121,-1.967479,0.248717,0.966216,-0.067521,1.108534,0.0321,-0.870407,-0.047499,0.920319,0.385209
475,1.249642,-1.3172,-2.039862,0.238046,0.968016,-0.079191,0.476054,0.853448,-0.327879,0.712027,0.928819,0.173277
476,1.23873,-1.306706,-2.065157,0.24676,0.96533,-0.085091,0.598951,0.517519,0.721335,0.56661,-0.132368,-0.437125
477,1.225718,-1.289402,-2.078904,0.261314,0.960669,-0.093932,0.125495,-0.297157,0.800257,0.152352,-0.132727,-0.205583
478,1.257891,-1.277625,-2.03678,0.274947,0.957332,-0.088954,-0.541991,-0.361338,0.646126,0.045763,0.093434,-0.212071
479,1.310343,-1.274464,-1.981237,0.282155,0.956414,-0.075196,-0.862902,0.171102,0.175321,0.043513,0.132499,0.008531
480,1.386916,-1.282571,-1.910916,0.279449,0.95875,-0.051972,-1.18435,0.593782,-0.285734,0.166321,0.213507,0.02115
481,1.481457,-1.291429,-1.827129,0.274637,0.96123,-0.024601,-1.202051,0.699272,-0.277447,0.270789,-0.071643,-0.058376
482,1.570503,-1.299227,-1.742913,0.268233,0.963351,-7.90E-05,-1.157973,0.191415,-0.385447,0.269228,-0.079989,-0.080518
483,1.656629,-1.307391,-1.6523,0.259399,0.965509,0.02232,-1.191072,-0.190345,-0.525126,0.047867,-0.227685,-0.075649
484,1.740433,-1.318203,-1.560754,0.246315,0.968268,0.04219,-0.979922,-0.210369,-0.761839,-0.061455,-0.222372,-0.204772
485,1.807699,-1.33038,-1.488832,0.231444,0.971239,0.055879,-0.578111,-0.055207,-0.751753,-0.048659,-0.168718,-0.228334
486,1.854349,-1.341174,-1.442876,0.218506,0.973752,0.063674,-0.312026,0.197832,-0.592122,-0.020813,-0.157407,-0.199721
487,1.899957,-1.348925,-1.402998,0.208225,0.975487,0.071127,-0.306399,0.397542,-0.456674,0.069469,-0.463387,-0.098028
488,1.94043,-1.353701,-1.369904,0.200829,0.976527,0.07781,-0.209111,0.390066,-0.270115,0.118461,-0.57783,-0.103261
489,1.952473,-1.356455,-1.36329,0.197382,0.977117,0.079221,0.124293,0.193317,-0.108369,0.133703,-0.562688,-0.144315
490,1.922979,-1.361513,-1.392332,0.19499,0.97818,0.071659,0.548298,-0.229815,-0.155071,0.183108,-0.36026,-0.193211
491,1.847226,-1.370263,-1.46008,0.191612,0.979961,0.054359,0.87243,-0.590692,-0.232461,0.267174,-0.223765,-0.108848
492,1.753498,-1.378981,-1.540102,0.187451,0.98166,0.034634,0.840225,-0.869692,-0.230192,0.257038,-0.247544,-0.097653
493,1.645913,-1.383387,-1.629206,0.18577,0.98249,0.013981,0.876691,-1.084813,-0.011745,0.092322,-0.413292,0.036099
494,1.527163,-1.380287,-1.722939,0.189161,0.981908,-0.008259,0.874441,-1.513228,0.299641,-0.046965,-0.439565,0.133793
495,1.385835,-1.366319,-1.827869,0.199577,0.979167,-0.037341,1.289034,-2.11514,0.746621,-0.13015,-0.322261,0.13338
496,1.23907,-1.339531,-1.935308,0.216701,0.973377,-0.074644,1.519517,-1.960894,1.133661,-0.262645,0.098904,-0.0161
497,1.130993,-1.304454,-2.015138,0.238147,0.96474,-0.112058,1.64046,-1.261987,1.273547,-0.168978,0.467633,-0.116702
498,1.049849,-1.265394,-2.08535,0.260784,0.953726,-0.149643,1.793728,-0.39644,1.271372,-0.090694,0.667413,-0.104508
499,0.993524,-1.231024,-2.13163,0.27926,0.942831,-0.181876,1.351592,-0.86957,0.892876,0.214194,0.2093,-0.107751
500,0.93893,-1.207582,-2.163381,0.286679,0.93476,-0.209843,0.951535,-1.410221,0.579922,0.198153,0.086496,-0.211239
501,0.900698,-1.189942,-2.172843,0.291329,0.928347,-0.230853,0.526368,-1.465464,0.644321,0.137321,0.115598,-0.220059
502,0.885022,-1.17298,-2.16063,0.299819,0.921909,-0.245329,0.253012,-1.26101,0.900659,-0.037795,0.159832,-0.219957
503,0.888375,-1.158466,-2.132439,0.310993,0.916189,-0.252736,-0.112977,-1.066787,0.865807,-0.059909,-0.012106,-0.19128
504,0.896836,-1.151856,-2.101881,0.317844,0.913521,-0.253869,-0.35273,-0.913122,0.475103,-0.105717,-0.055687,-0.178306
505,0.90472,-1.155588,-2.074777,0.317153,0.915032,-0.249247,-0.686725,-0.852817,0.069973,0.008653,0.003364,-0.145071
506,0.922408,-1.169149,-2.038335,0.311592,0.920418,-0.236082,-1.175761,-0.713763,-0.180381,0.052223,-0.079445,-0.150622
507,0.961925,-1.189742,-1.985603,0.30506,0.928273,-0.2127,-1.524563,-0.294672,-0.253857,0.041894,-0.109349,-0.197334
508,1.019992,-1.212496,-1.92103,0.298811,0.936494,-0.183534,-1.610411,-0.051004,-0.375478,0.027269,-0.056718,-0.36885
509,1.073999,-1.236546,-1.862062,0.288395,0.944656,-0.156354,-1.36727,-0.090251,-0.627966,-0.032215,-0.002045,-0.465778
510,1.111758,-1.260616,-1.81742,0.273623,0.952279,-0.135238,-1.047389,-0.290996,-0.786776,-0.066134,-0.05587,-0.36818
511,1.142484,-1.281216,-1.77619,0.259745,0.958364,-0.118594,-1.01221,-0.530713,-0.543736,0.028677,0.17718,-0.157697
512,1.183934,-1.292339,-1.723072,0.254547,0.961481,-0.1037,-0.853468,-0.541856,-0.026662,-0.068054,0.23728,-0.319319
513,1.221503,-1.294855,-1.671022,0.255988,0.962169,-0.093238,-0.561284,-0.565171,0.222168,-0.139746,0.041173,-0.286248
514,1.229267,-1.290139,-1.651668,0.260976,0.960874,-0.092766,0.200435,-0.668539,0.369695,-0.039739,-0.235608,0.040459
515,1.137305,-1.274425,-1.72303,0.265026,0.956403,-0.122668,1.928638,-1.754346,0.276335,-0.06213,0.056674,0.084735
516,0.913635,-1.238875,-1.907256,0.257984,0.945418,-0.199052,3.626342,-2.08996,-0.116232,0.18832,2.187013,0.380159
517,0.817252,-1.2359,-1.992078,0.239682,0.944444,-0.224879,-0.144765,-0.061958,-1.037137,0.384509,1.261809,1.077647
518,0.831148,-1.24233,-1.99796,0.238293,0.946538,-0.217429,0.370026,1.082738,0.231903,0.093342,-0.72231,-0.422464
519,0.848604,-1.214226,-1.998619,0.261915,0.9371,-0.230735,0.829586,0.693229,1.334813,0.136248,-0.388394,0.036185
520,0.879875,-1.193397,-1.956562,0.283985,0.929626,-0.234823,-0.115585,-0.818927,1.22119,0.227978,0.119736,0.034414
521,0.903397,-1.186489,-1.908582,0.294465,0.927058,-0.232047,-0.847863,-0.992126,0.41513,0.014769,0.824162,0.525932
522,0.942738,-1.211335,-1.859309,0.284634,0.936086,-0.206685,-1.81346,-0.067797,-0.794549,-0.219829,0.43278,0.322713
523,1.004813,-1.247619,-1.801226,0.268048,0.948231,-0.170295,-1.681774,0.645883,-0.894956,-0.225872,0.043895,0.036155
524,1.086015,-1.271238,-1.73565,0.261084,0.955467,-0.137514,-1.364827,1.029047,-0.287551,0.177576,0.011101,-0.055373
525,1.179538,-1.282489,-1.655472,0.262829,0.958727,-0.108424,-1.290393,0.620408,0.073483,0.215518,-0.264467,-0.097188
526,1.26784,-1.294722,-1.564181,0.260152,0.962133,-0.081318,-1.482624,-0.342269,-0.375279,0.121058,-0.614904,-0.03944
527,1.350212,-1.31505,-1.464637,0.246822,0.967475,-0.055346,-1.510962,-0.808485,-0.710302,-0.014949,-0.331656,0.041826
528,1.437919,-1.333308,-1.356921,0.23317,0.971932,-0.031167,-1.420614,-0.817588,-0.643429,-0.007187,-0.289559,0.089654
529,1.536565,-1.347983,-1.240549,0.220825,0.97528,-0.007562,-1.358266,-0.670968,-0.600453,-0.00299,-0.319304,0.084894
530,1.638368,-1.359183,-1.124641,0.209537,0.977693,0.01418,-1.143156,-0.497117,-0.573536,-0.030627,-0.305605,0.035746
531,1.72715,-1.369463,-1.027888,0.197515,0.979801,0.031136,-0.799861,-0.178321,-0.674096,-0.143621,-0.079074,-0.128045
532,1.803899,-1.382667,-0.949174,0.181942,0.982356,0.043196,-0.528023,0.057987,-0.863711,0.002735,0.015645,-0.017256
533,1.882002,-1.396747,-0.871641,0.16483,0.984892,0.053019,-0.494176,0.040632,-0.815383,0.24232,-0.069303,-0.065211
534,1.96369,-1.404398,-0.785913,0.152989,0.986188,0.063405,-0.570546,-0.227873,-0.469468,0.315074,-0.037411,-0.15978
535,2.028374,-1.404637,-0.71369,0.148359,0.986227,0.073057,-0.491506,-0.375329,-0.160011,0.338945,0.072504,-0.173887
536,2.068257,-1.402865,-0.66468,0.146864,0.985933,0.079749,-0.364111,-0.446361,-0.089596,0.420855,0.076323,-0.086005
537,2.095284,-1.400334,-0.625827,0.146816,0.985506,0.084939,-0.334854,-0.743985,-0.012098,0.479114,0.16081,-0.111199
538,2.086096,-1.397069,-0.614855,0.150389,0.984947,0.085171,-0.04074,-1.111144,0.175229,0.267289,0.347877,0.131
539,2.027641,-1.393904,-0.647067,0.157907,0.984395,0.077615,0.333537,-1.510281,0.297996,0.212454,0.383067,0.180609
540,1.906185,-1.393044,-0.733357,0.166946,0.984244,0.05819,0.879647,-1.960887,0.355799,0.14151,0.421396,0.22811
541,1.733446,-1.392188,-0.8664,0.175296,0.984092,0.028766,1.282389,-2.14314,0.295821,-0.028369,0.178155,0.273694
542,1.530461,-1.388569,-1.032194,0.181055,0.983442,-0.007307,1.544299,-1.808415,0.277993,-0.011576,0.281954,0.242292
543,1.352938,-1.377576,-1.182828,0.187466,0.981391,-0.0415,1.37859,-1.278921,0.408617,-0.019696,0.331017,0.252361
544,1.229279,-1.361507,-1.287166,0.195753,0.978179,-0.06958,1.131802,-1.007918,0.516573,0.040193,0.171129,0.094894
545,1.13089,-1.345135,-1.363586,0.202437,0.974646,-0.09528,1.046479,-1.377777,0.376514,0.154451,0.126397,0.01035
546,1.03607,-1.331198,-1.423712,0.204175,0.971433,-0.12093,0.853908,-2.086115,0.25964,0.179659,0.174441,0.029438
547,0.951094,-1.319557,-1.460241,0.202368,0.968605,-0.144381,0.590914,-2.690237,0.248963,0.228983,0.226311,0.087985
548,0.877485,-1.309985,-1.476758,0.198325,0.966181,-0.164792,0.387997,-2.956982,0.264979,0.160043,0.212576,0.158643
549,0.816217,-1.302486,-1.479172,0.193137,0.96422,-0.181584,0.201373,-2.936102,0.266853,0.089761,0.212721,0.196523
550,0.783472,-1.295743,-1.456308,0.191673,0.962411,-0.192412,-0.115116,-2.618488,0.500313,0.04908,0.137656,0.252746
551,0.767248,-1.292583,-1.420473,0.190636,0.961548,-0.197685,-0.255003,-2.455888,0.452126,-0.065514,-0.162079,0.204582
552,0.753674,-1.289336,-1.385879,0.190071,0.960651,-0.20253,-0.180603,-2.283564,0.450288,-0.08654,-0.215793,0.203049
553,0.73781,-1.286651,-1.353845,0.188569,0.959902,-0.207428,-0.238434,-2.39072,0.391269,-0.122971,-0.345674,0.255569
554,0.716627,-1.287225,-1.322154,0.183771,0.960062,-0.21096,-0.369392,-2.697607,0.260425,-0.079065,-0.508784,0.337135
555,0.688842,-1.292989,-1.292228,0.174319,0.961659,-0.211708,-0.56768,-2.872908,0.048824,-0.050341,-0.537251,0.363091
556,0.662081,-1.303708,-1.262152,0.162245,0.964543,-0.208154,-0.71157,-2.678229,-0.026137,-0.034269,-0.509313,0.366174
557,0.650355,-1.315597,-1.225108,0.152839,0.967613,-0.200901,-0.799456,-2.196804,0.06984,-0.045844,-0.404594,0.263783
558,0.665833,-1.3271,-1.170555,0.149044,0.970453,-0.189745,-0.905555,-1.668699,0.229724,-0.0872,-0.233896,0.174898
559,0.701775,-1.338381,-1.106575,0.148687,0.973113,-0.175893,-0.890154,-1.114713,0.20562,-0.095099,-0.159102,0.086691
560,0.730388,-1.348311,-1.057322,0.147204,0.975352,-0.164361,-0.618603,-0.949747,0.008617,-0.045734,0.010793,0.018258
561,0.724012,-1.355381,-1.041178,0.141582,0.976888,-0.160126,-0.260655,-1.219894,-0.143429,0.044194,0.243144,-0.040863
562,0.695039,-1.357242,-1.044438,0.135719,0.977284,-0.162763,0.101157,-1.300494,-0.014748,0.059685,0.334728,-0.044893
563,0.668649,-1.350785,-1.048108,0.135287,0.975895,-0.171237,0.341201,-1.003191,0.286718,0.125257,0.319103,-0.141766
564,0.664969,-1.339634,-1.035396,0.141363,0.973401,-0.180287,0.358391,-0.715612,0.549252,0.152018,0.18082,-0.378261
565,0.683146,-1.324213,-1.001782,0.154075,0.969752,-0.189309,0.385317,-0.801203,0.883903,0.249597,-0.035044,-0.29499
566,0.67686,-1.303398,-0.985527,0.165492,0.964462,-0.205968,0.779704,-1.278116,0.725967,0.438878,0.074082,0.0174
567,0.664303,-1.28737,-0.966449,0.172402,0.960103,-0.220174,0.220308,-1.595738,0.720332,0.396873,0.293849,0.150091
568,0.677713,-1.280564,-0.92306,0.179432,0.958177,-0.222929,-0.301825,-1.298501,0.634051,0.107769,0.599409,0.327711
569,0.697371,-1.280912,-0.873972,0.183566,0.958277,-0.219103,-0.435225,-1.449797,0.490171,-0.06029,0.560552,0.303255
570,0.699315,-1.282731,-0.840117,0.182868,0.958795,-0.217411,-0.381674,-1.5263,0.128516,-0.154548,0.282171,0.282841
571,0.663501,-1.288928,-0.846453,0.171304,0.960537,-0.219135,-0.016218,-1.494378,-0.444743,-0.15719,-0.307049,0.309467
572,0.602229,-1.293105,-0.878591,0.155289,0.961691,-0.225904,0.071394,-1.489264,-0.467639,0.068008,-0.360052,0.3728
573,0.560297,-1.30066,-0.894501,0.141818,0.963734,-0.226054,-0.385777,-1.238933,-0.335489,0.232282,-0.05634,0.346415
574,0.554417,-1.314815,-0.878723,0.13329,0.967415,-0.215263,-0.893632,-0.97936,-0.073382,0.326823,0.318443,0.238914
575,0.593464,-1.331724,-0.818862,0.132424,0.971558,-0.196305,-1.183099,-0.948842,0.270661,0.278297,0.395233,0.125763
576,0.654903,-1.346304,-0.736842,0.135584,0.974907,-0.176549,-1.081886,-0.88672,0.365292,0.150091,0.188926,0.045842
577,0.720079,-1.356632,-0.652977,0.140147,0.977154,-0.159764,-0.935453,-0.820145,0.372639,0.131307,-0.120572,0.138448
578,0.779793,-1.367127,-0.574949,0.142212,0.979331,-0.143815,-0.974251,-0.863968,0.17694,0.092193,-0.187522,0.154573
579,0.854749,-1.379189,-0.478388,0.14366,0.981699,-0.124998,-1.18011,-1.048775,0.217399,0.067736,-0.209711,0.146757
580,0.948833,-1.392459,-0.360433,0.144165,0.98414,-0.103349,-1.293938,-1.103258,0.088487,-0.023468,-0.258691,0.168778
581,1.049137,-1.407447,-0.236563,0.140983,0.986688,-0.081032,-1.266125,-1.080056,-0.143152,-0.027442,-0.124231,0.103509
582,1.143405,-1.422407,-0.119286,0.134533,0.989011,-0.061276,-1.063779,-1.085435,-0.30517,-0.01907,-0.094174,0.057339
583,1.222175,-1.436233,-0.018085,0.126073,0.99096,-0.045823,-0.846621,-1.047476,-0.395569,0.050166,-0.20028,0.072435
584,1.298575,-1.448216,0.078451,0.117754,0.992496,-0.032871,-0.741613,-0.912689,-0.360825,0.087705,-0.282413,0.101536
585,1.390923,-1.457577,0.188065,0.111137,0.993598,-0.020209,-0.747755,-0.777689,-0.283061,0.098092,-0.29151,0.096244
586,1.518588,-1.465365,0.331384,0.10507,0.994447,-0.005491,-0.867961,-0.731334,-0.316007,0.113603,-0.157259,0.022245
587,1.674606,-1.472472,0.502878,0.097612,0.99517,0.01017,-0.835404,-0.710797,-0.418355,0.181624,0.03402,-0.044929
588,1.84112,-1.47865,0.682727,0.088647,0.995757,0.024565,-0.753503,-0.572421,-0.461757,0.201086,0.069794,-0.047697
589,1.994392,-1.4819,0.846751,0.080904,0.996051,0.036479,-0.536771,-0.452083,-0.373871,0.241728,-0.036579,0.007329
590,2.095393,-1.483987,0.956401,0.075012,0.996234,0.043408,-0.32494,-0.447942,-0.261302,0.407684,-0.012638,0.05788
591,2.1573,-1.482321,1.031804,0.073568,0.996089,0.048886,-0.328783,-0.796292,0.009378,0.463542,0.068044,0.014148
592,2.165922,-1.476426,1.05788,0.078006,0.99555,0.05281,-0.196585,-0.825375,0.241074,0.312695,0.126825,0.01622
593,2.122836,-1.469923,1.031689,0.08572,0.994917,0.052796,0.004777,-0.93656,0.431699,0.351979,0.212649,-0.044785
594,2.016183,-1.460846,0.943624,0.099003,0.993962,0.047262,0.321345,-0.949487,0.725551,0.317165,0.180874,0.107539
595,1.841176,-1.449515,0.790197,0.116567,0.992654,0.032309,0.837534,-1.301358,0.893045,0.247004,0.143408,0.258692
596,1.606127,-1.433258,0.58825,0.136998,0.990557,0.004842,1.342511,-2.013246,1.058787,-0.027989,0.148146,0.289561
597,1.353585,-1.40844,0.378231,0.15783,0.986849,-0.034832,1.8417,-2.270675,1.066876,-0.093331,0.221891,0.285076
598,1.148006,-1.379226,0.20952,0.173624,0.981706,-0.078117,1.803664,-1.73261,0.808479,-0.025705,0.417433,0.396156
599,1.0181,-1.350877,0.104231,0.185661,0.975915,-0.11452,1.49358,-1.204092,0.775726,0.021263,0.375495,0.286303
600,0.938331,-1.322609,0.047833,0.198124,0.969359,-0.145205,1.253841,-1.341865,0.805206,0.129375,0.371522,0.249926
601,0.873174,-1.297204,0.013072,0.207061,0.962807,-0.173565,1.056407,-1.713535,0.682526,0.15558,0.426415,0.220196
602,0.82003,-1.274846,-0.00294,0.213238,0.956526,-0.198957,0.809662,-1.989753,0.707862,0.100711,0.419176,0.194029
603,0.777771,-1.255229,-0.003696,0.21777,0.95062,-0.221117,0.658947,-2.104071,0.655681,-0.107144,0.260531,0.140917
604,0.737574,-1.235569,-0.002721,0.221236,0.944335,-0.243477,0.678817,-1.887102,0.724977,-0.033629,0.164902,0.23362
605,0.698628,-1.220767,-0.002458,0.220555,0.939363,-0.262582,0.599821,-1.80645,0.338693,-0.029072,0.122542,0.23974
606,0.65613,-1.2096,-0.004498,0.215586,0.935475,-0.28001,0.298587,-2.334958,0.366108,0.005239,0.220592,0.110928
607,0.622138,-1.201117,0.008844,0.210562,0.932443,-0.293614,0.162077,-2.247436,0.441955,0.125619,-0.056024,0.222645
608,0.596096,-1.194279,0.022614,0.20642,0.929951,-0.304266,0.100472,-1.777171,0.37576,0.113602,-0.420658,0.2712
609,0.578104,-1.191654,0.038918,0.202247,0.928982,-0.309975,-0.168424,-1.629962,0.292508,-0.005653,-0.632855,0.271919
610,0.564121,-1.195141,0.060091,0.19616,0.930267,-0.310033,-0.466112,-1.713832,0.212556,-0.103768,-0.683548,0.262594
611,0.552814,-1.202841,0.08464,0.188875,0.933065,-0.306125,-0.604468,-1.701378,0.148549,-0.204912,-0.69248,0.280964
612,0.546713,-1.212371,0.111364,0.182372,0.93645,-0.299663,-0.678156,-1.437106,0.191493,-0.237456,-0.715259,0.298778
613,0.552416,-1.2232,0.143236,0.178746,0.940194,-0.289967,-0.806597,-1.056348,0.189039,-0.240163,-0.692285,0.302556
614,0.574278,-1.235963,0.184275,0.178508,0.944465,-0.275893,-0.959137,-0.735482,0.266611,-0.217784,-0.597999,0.265349
615,0.607462,-1.24912,0.232609,0.180455,0.948707,-0.259592,-0.95849,-0.574695,0.283501,-0.177632,-0.521186,0.206339
616,0.640201,-1.259145,0.27742,0.183164,0.951828,-0.245906,-0.711369,-0.44233,0.267966,-0.161528,-0.348084,0.103007
617,0.667772,-1.264214,0.313831,0.186883,0.953371,-0.236971,-0.434496,-0.280468,0.309217,-0.052652,-0.022767,0.016664
618,0.698333,-1.263236,0.346933,0.194636,0.953075,-0.231864,-0.205272,0.107876,0.497259,-0.020579,0.028141,0.0194
619,0.740003,-1.258546,0.38309,0.207138,0.951645,-0.226852,-0.214669,0.497369,0.604585,0.075913,-0.047226,0.076858
620,0.796107,-1.254724,0.427814,0.22213,0.950464,-0.217423,-0.430217,0.750496,0.627325,0.074257,-0.049295,0.072586
621,0.861815,-1.254639,0.481857,0.235988,0.950437,-0.202421,-0.726627,0.681664,0.515315,0.029454,0.024905,0.066267
622,0.913035,-1.258054,0.526116,0.243471,0.951493,-0.188088,-0.386394,0.23689,0.09311,-0.022494,0.959441,0.168465
623,0.890872,-1.255192,0.511511,0.24136,0.950609,-0.195148,0.544755,-0.709468,-0.082908,0.078281,1.265028,0.336017
624,0.821859,-1.248099,0.452736,0.232262,0.948383,-0.215914,1.047378,-0.424964,-0.53696,0.085975,1.267651,0.503817
625,0.773956,-1.250426,0.40052,0.220113,0.949119,-0.225209,0.202,0.38354,-0.59304,0.06312,-0.190574,0.330189
626,0.77644,-1.251459,0.393216,0.219985,0.949444,-0.223962,0.103473,0.361595,0.183966,0.09813,-0.239666,0.117319
627,0.775634,-1.23649,0.389116,0.22973,0.944638,-0.234261,0.732889,0.22802,0.541047,0.156485,0.436969,-0.090995
628,0.7812,-1.228165,0.394055,0.23656,0.941874,-0.238555,-0.129974,-0.268385,0.22053,0.405728,0.115652,-0.064912
629,0.800249,-1.22666,0.421256,0.242077,0.941367,-0.234992,-0.213952,-0.198746,0.460204,0.074085,-0.000754,-0.007791
630,0.822288,-1.221666,0.445404,0.250638,0.939671,-0.232797,-0.161784,0.024738,0.470964,0.03464,-0.054188,0.068932
631,0.857526,-1.220052,0.480485,0.259831,0.939117,-0.224814,-0.539676,0.171108,0.425408,0.021938,-0.099792,0.10961
632,0.902341,-1.224947,0.523267,0.266031,0.940788,-0.210096,-0.810298,0.235928,0.16813,0.090231,-0.094642,0.084516
633,0.943174,-1.235747,0.564766,0.266145,0.944394,-0.193083,-0.888246,-0.041842,-0.096978,0.217299,0.008228,0.096007
634,0.973732,-1.249624,0.600933,0.261056,0.948866,-0.177475,-0.855077,-0.221182,-0.29841,0.136085,0.040499,0.083618
635,0.998908,-1.264039,0.632148,0.253912,0.953318,-0.163427,-0.751495,-0.235252,-0.33292,0.00117,-0.04217,0.054921
636,1.020147,-1.274089,0.659614,0.249148,0.956304,-0.152976,-0.491617,-0.259891,-0.257366,-0.096819,-0.189428,0.07682
637,1.023601,-1.280186,0.665293,0.244691,0.958069,-0.149079,-0.074395,0.046303,-0.201433,-0.16739,-0.436509,0.029953
638,1.013808,-1.281947,0.647277,0.241787,0.958572,-0.150576,0.329228,0.560634,-0.235592,-0.115246,-0.584,0.017275
639,0.986857,-1.280839,0.604992,0.238528,0.958256,-0.157623,0.625454,0.664206,-0.285998,-0.054965,-0.673405,0.00769
640,0.952235,-1.277678,0.557052,0.235396,0.957348,-0.16754,0.676781,0.502968,-0.235227,0.055803,-0.565487,0.082229
641,0.912376,-1.271679,0.507993,0.233071,0.955597,-0.180299,0.807471,0.222039,-0.15811,0.186683,-0.338196,0.026719
642,0.863369,-1.262122,0.455534,0.230891,0.952737,-0.197426,0.950284,0.004013,-0.10449,0.26029,-0.199685,0.122918
643,0.817887,-1.251373,0.409712,0.229136,0.949417,-0.214711,0.846648,-0.219522,-0.057926,0.199361,-0.071548,0.276371
644,0.775485,-1.238225,0.376988,0.228548,0.945206,-0.233125,0.837244,-0.807734,0.261092,0.010298,0.108047,0.325929
645,0.739972,-1.21654,0.362558,0.233895,0.937905,-0.256172,1.031744,-1.202375,0.746861,-0.077477,0.431984,0.262565
646,0.712676,-1.18739,0.358677,0.244594,0.927396,-0.283032,1.196389,-1.138871,0.973325,0.06461,0.675799,0.022717
647,0.686937,-1.156115,0.351011,0.255504,0.915245,-0.311514,1.343951,-0.779626,0.783751,0.119313,0.846795,-0.234857
648,0.658408,-1.12777,0.328388,0.262286,0.903458,-0.339065,1.391247,-0.158163,0.375225,0.032483,0.806823,-0.187119
649,0.637397,-1.105574,0.3052,0.266975,0.893722,-0.36053,1.052044,-0.062604,0.215704,0.134805,0.660264,-0.13889
650,0.620637,-1.090045,0.293538,0.268935,0.886648,-0.3762,0.598547,-0.452384,0.314517,0.292253,0.505778,-0.061605
651,0.616256,-1.083223,0.30155,0.270773,0.883473,-0.382302,-0.115071,-0.631112,0.34074,0.119806,0.212688,0.026421
652,0.62063,-1.090017,0.325152,0.268946,0.886635,-0.376222,-0.861585,-0.947497,0.188516,0.030172,-0.063591,0.055955
653,0.627429,-1.107653,0.357204,0.262277,0.894653,-0.361668,-1.254224,-1.13183,0.006549,-0.170785,-0.331832,0.1097
654,0.635024,-1.129802,0.389678,0.253197,0.904328,-0.343626,-1.32783,-1.01921,-0.121228,-0.186882,-0.416428,0.133024
655,0.647009,-1.153494,0.42137,0.24431,0.914186,-0.323377,-1.358149,-0.737493,-0.215805,-0.198228,-0.572374,0.16609
656,0.666088,-1.177663,0.453593,0.23671,0.923713,-0.301194,-1.343764,-0.42738,-0.257762,-0.226914,-0.673179,0.163041
657,0.691866,-1.202351,0.488072,0.229773,0.932889,-0.277343,-1.385595,-0.271574,-0.290301,-0.199224,-0.774228,0.136428
658,0.72194,-1.229222,0.524944,0.221358,0.942229,-0.251399,-1.464718,-0.206842,-0.425532,-0.162184,-0.708388,0.071787
659,0.75605,-1.255346,0.56529,0.212839,0.950657,-0.225713,-1.334906,-0.20442,-0.344512,-0.094568,-0.404026,0.006841
660,0.796385,-1.273649,0.611341,0.209293,0.956176,-0.204744,-0.995723,-0.144029,-0.02389,-0.049167,-0.097975,-0.029234
661,0.840063,-1.282072,0.65836,0.212028,0.958608,-0.190028,-0.6892,-0.019495,0.268648,-0.081244,-0.029775,0.031794
662,0.889731,-1.285274,0.70864,0.218815,0.959515,-0.177333,-0.654931,0.098272,0.358467,-0.221088,-0.084377,0.043101
663,0.942283,-1.287336,0.760279,0.226226,0.960093,-0.16443,-0.588349,0.196041,0.359875,-0.25508,0.094884,0.009996
664,0.95659,-1.283835,0.775585,0.231301,0.959108,-0.163113,0.337194,-0.133362,0.148845,-0.277062,0.587355,0.16116
665,0.927744,-1.271953,0.744834,0.235605,0.955678,-0.176538,0.860749,0.284503,0.158376,0.042883,0.971584,0.382761
666,0.885213,-1.263107,0.685668,0.234421,0.953036,-0.191742,0.930866,0.928539,-0.320523,0.179032,0.552076,0.459045
667,0.866322,-1.256812,0.644726,0.235324,0.951111,-0.200018,0.607799,0.833506,0.0149,0.453519,0.58815,0.00263
668,0.856561,-1.240036,0.621563,0.245384,0.945796,-0.212728,0.752138,0.51966,0.585673,0.450798,0.300741,-0.050288
669,0.857347,-1.231707,0.618086,0.251499,0.943058,-0.217683,0.146715,0.074533,0.007308,0.258572,-0.076511,-0.129393
670,0.852372,-1.233809,0.611941,0.248919,0.943755,-0.217626,-0.07566,0.068418,-0.135243,0.079206,-0.006545,-0.038905
671,0.86595,-1.237366,0.620044,0.249292,0.944925,-0.212049,-0.285791,0.474383,0.023002,0.026816,0.159826,0.061277
672,0.904297,-1.238611,0.64442,0.256314,0.945332,-0.201609,-0.383195,0.913585,0.296292,0.079517,0.204403,0.081813
673,0.954756,-1.238319,0.675944,0.266381,0.945237,-0.188584,-0.396364,1.07765,0.304536,0.169516,-0.048096,0.151566
674,1.001911,-1.238416,0.706109,0.274898,0.945268,-0.175769,-0.457317,0.757423,0.252178,0.135365,-0.120225,0.176867
675,1.042202,-1.241836,0.739279,0.278961,0.946379,-0.162921,-0.574736,0.294226,0.038307,0.077744,-0.19203,0.1897
676,1.066621,-1.249307,0.759797,0.276657,0.948766,-0.152642,-0.367561,0.280843,-0.257195,-0.123169,-0.29926,0.108864
677,1.071571,-1.256803,0.757794,0.271157,0.951108,-0.147861,-0.018772,0.378122,-0.377729,-0.146218,-0.336362,0.054905
678,1.05796,-1.261354,0.734376,0.265345,0.952504,-0.149413,0.317592,0.462096,-0.357327,-0.160975,-0.363331,0.028868
679,1.032768,-1.262232,0.696994,0.260779,0.952771,-0.15562,0.563291,0.586722,-0.301291,-0.1005,-0.48457,0.006481
680,1.002067,-1.25957,0.649508,0.258015,0.951959,-0.164917,0.767781,0.794606,-0.250991,-0.073277,-0.499444,-0.028259
681,0.963269,-1.253013,0.591284,0.256544,0.94993,-0.178361,1.011026,0.831952,-0.210884,-0.018766,-0.48501,-0.041503
682,0.920525,-1.243337,0.529283,0.255992,0.946863,-0.194716,1.101407,0.798475,-0.176027,0.238438,-0.257013,0.089614
683,0.882028,-1.232006,0.471817,0.256576,0.943157,-0.211231,1.062478,0.752522,-0.105737,0.293641,-0.188717,0.136722
684,0.850159,-1.221097,0.425683,0.257431,0.939476,-0.226075,0.860508,0.465508,-0.083279,0.300918,-0.189476,0.168519
685,0.821416,-1.211531,0.39001,0.257396,0.936155,-0.239491,0.764563,0.056578,-0.034287,0.223516,-0.000578,0.163105
686,0.787039,-1.198795,0.361033,0.257436,0.931602,-0.256593,0.863959,-0.614789,0.206549,0.073771,0.2893,0.17975
687,0.755614,-1.179198,0.345236,0.261719,0.9243,-0.277792,0.914105,-0.897922,0.637756,0.017334,0.421266,0.114218
688,0.734495,-1.154326,0.341525,0.271121,0.914522,-0.300229,1.040481,-0.841588,0.825505,0.080534,0.491026,-0.208941
689,0.709373,-1.124739,0.326941,0.281,0.902155,-0.327339,1.484799,-0.422752,0.66143,0.160055,0.774404,-0.30674
690,0.681334,-1.096326,0.299786,0.287746,0.889535,-0.354861,1.339578,-0.073616,0.323478,0.21468,0.943031,-0.242429
691,0.663379,-1.080582,0.282205,0.289917,0.882232,-0.37096,0.581302,-0.229881,0.099396,0.185318,0.855668,-0.075772
692,0.651264,-1.077971,0.277973,0.286797,0.881,-0.376276,-0.036842,-0.473197,-0.055229,0.049033,0.36308,-0.059683
693,0.644779,-1.083677,0.281572,0.281325,0.883685,-0.374103,-0.42098,-0.511172,-0.082433,0.113587,-0.204058,0.101413
694,0.65475,-1.09433,0.299597,0.279292,0.888621,-0.363791,-0.868659,-0.307657,0.027411,-0.055949,-0.226054,0.010566
695,0.669475,-1.11237,0.328212,0.274625,0.89675,-0.347011,-1.206718,-0.641522,-0.103778,-0.155454,-0.36048,0.050793
696,0.681778,-1.134223,0.357216,0.266458,0.906206,-0.32831,-1.244794,-0.699449,-0.236429,-0.184991,-0.417665,0.144106
697,0.693921,-1.156273,0.384744,0.257581,0.915308,-0.309611,-1.197325,-0.617447,-0.271454,-0.200727,-0.485087,0.201304
698,0.710142,-1.177462,0.413106,0.249867,0.923636,-0.290618,-1.168791,-0.429039,-0.259745,-0.217579,-0.558402,0.202926
699,0.73217,-1.200275,0.443918,0.242056,0.932139,-0.2693,-1.291478,-0.258957,-0.329186,-0.204306,-0.562846,0.196821
700,0.763423,-1.224688,0.482253,0.234546,0.9407,-0.245088,-1.361857,-0.239583,-0.317952,-0.188052,-0.450328,0.150483
701,0.802374,-1.245525,0.528921,0.229767,0.947564,-0.222095,-1.210326,-0.248459,-0.094692,-0.129821,-0.378625,0.074421
702,0.847994,-1.259134,0.580881,0.229962,0.951825,-0.202835,-0.961237,-0.147969,0.133382,-0.075513,-0.301435,-0.033416
703,0.893909,-1.264989,0.6306,0.234681,0.953604,-0.188572,-0.647881,-0.013526,0.339429,-0.065125,-0.111685,-0.109462
704,0.937827,-1.263957,0.674615,0.243528,0.953293,-0.17867,-0.424816,0.159781,0.495657,-0.079786,0.052444,-0.069194
705,0.982271,-1.260228,0.715846,0.254181,0.95216,-0.169646,-0.429412,0.327033,0.498615,-0.010635,0.082233,-0.000932
706,1.021154,-1.257903,0.750481,0.262471,0.951447,-0.160793,-0.278438,0.21771,0.268006,-0.059025,0.150604,0.014843
707,1.021835,-1.257193,0.749444,0.263156,0.951228,-0.160967,0.189442,0.061699,-0.016946,-0.113559,0.740285,0.057481
708,0.991025,-1.254769,0.715157,0.260001,0.950478,-0.17026,0.785362,0.140689,-0.306646,-0.044181,1.08651,0.253924
709,0.943862,-1.25323,0.657865,0.252869,0.949998,-0.183186,0.626318,0.440156,-0.466238,0.306991,0.830535,0.384236
710,0.932638,-1.253743,0.635737,0.250406,0.950158,-0.185723,0.087124,0.526647,-0.050303,0.514425,0.282767,0.006462
711,0.949444,-1.25169,0.643212,0.255077,0.949516,-0.182623,-0.054582,0.383231,0.239447,0.464177,0.309013,-0.107706
712,0.962217,-1.24667,0.653541,0.261296,0.947929,-0.182073,0.022549,0.067283,0.329053,0.22993,0.204353,-0.085566
713,0.979594,-1.242039,0.668704,0.268062,0.946444,-0.179949,-0.117452,0.243574,0.320372,-0.04388,-0.047671,-0.037534
714,1.004146,-1.240283,0.685001,0.273801,0.945876,-0.174207,-0.20868,0.626102,0.109873,-0.011334,0.051469,0.041486
715,1.039522,-1.24277,0.704474,0.277761,0.94668,-0.163221,-0.426718,0.938225,0.033174,0.069727,0.135717,0.152631
716,1.086675,-1.248148,0.733336,0.280635,0.948399,-0.147575,-0.573298,1.00828,-0.042715,0.083729,-0.021992,0.165382
717,1.131395,-1.254982,0.759511,0.28108,0.950544,-0.132121,-0.443762,0.967907,-0.181696,0.060458,-0.13046,0.155467
718,1.157894,-1.262625,0.769543,0.277818,0.95289,-0.121708,-0.227333,0.776042,-0.340171,-0.034151,-0.239358,0.121647
719,1.169028,-1.270647,0.76697,0.272112,0.955292,-0.115614,-0.056067,0.621153,-0.382574,-0.081972,-0.288331,0.073637
720,1.161766,-1.275695,0.748248,0.266837,0.956773,-0.115668,0.298417,0.507812,-0.317995,-0.101035,-0.35756,-0.009149
721,1.131201,-1.276187,0.705329,0.262751,0.956916,-0.123568,0.719723,0.537014,-0.26061,-0.049952,-0.482611,-0.010846
722,1.080934,-1.272596,0.642126,0.259242,0.955867,-0.13823,0.972219,0.468976,-0.248077,-0.014536,-0.515483,0.043626
723,1.027245,-1.26688,0.579005,0.256122,0.954172,-0.154766,0.937795,0.232347,-0.183921,-0.005298,-0.526025,0.104748
724,0.974685,-1.259564,0.522149,0.253408,0.951957,-0.171923,0.927105,0.025579,-0.148479,0.083338,-0.357871,0.024065
725,0.923347,-1.250869,0.466426,0.250845,0.949258,-0.189686,0.942424,0.10226,-0.157016,0.160807,-0.265954,0.118687
726,0.879866,-1.243039,0.420741,0.248083,0.946767,-0.20514,0.743001,-0.061319,-0.102652,0.208765,-0.099462,0.171144
727,0.849408,-1.233677,0.3905,0.248366,0.943711,-0.218444,0.660582,-0.139678,0.116926,0.088762,-0.152314,0.241424
728,0.817273,-1.222015,0.364496,0.249228,0.93979,-0.233826,0.756667,-0.569441,0.148058,-0.056388,0.079741,0.19754
729,0.776053,-1.206284,0.337438,0.249707,0.934298,-0.254418,0.98278,-0.89898,0.310293,-0.032971,0.375868,0.16047
730,0.738067,-1.182732,0.315475,0.254603,0.925643,-0.279922,1.230395,-0.797788,0.630223,0.03687,0.515336,0.017486
731,0.70482,-1.151858,0.293734,0.263554,0.913522,-0.309859,1.553431,-0.555194,0.688785,0.005428,0.60543,-0.130662
732,0.677304,-1.120942,0.268519,0.272504,0.900511,-0.338846,1.432954,-0.043626,0.468302,0.06061,0.457598,-0.134756
733,0.655236,-1.101365,0.244572,0.275652,0.891826,-0.358689,0.893651,-0.125197,0.023464,0.206907,0.619527,-0.275344
734,0.632558,-1.092729,0.228257,0.271991,0.887886,-0.371045,0.368957,-0.574953,-0.002057,0.347623,1.015877,-0.202655
735,0.621145,-1.090754,0.230854,0.268759,0.886975,-0.375551,-0.115362,-0.669671,0.128209,0.227091,0.670459,-0.104369
736,0.624879,-1.094941,0.244086,0.267984,0.888901,-0.371529,-0.527565,-0.281533,0.124832,0.024436,0.251953,-0.06327
737,0.637513,-1.109003,0.268859,0.26519,0.895255,-0.358033,-1.094912,-0.623007,-0.035722,-0.045845,-0.177207,-0.07286
738,0.64729,-1.131572,0.295609,0.256426,0.905082,-0.339216,-1.288415,-0.733142,-0.297579,-0.05501,-0.319404,0.001966
739,0.653866,-1.156272,0.317759,0.244975,0.915308,-0.319676,-1.231941,-0.628471,-0.414823,-0.074641,-0.392862,0.088139
740,0.663027,-1.180545,0.338921,0.234147,0.924814,-0.299816,-1.220491,-0.431528,-0.391494,-0.13147,-0.408151,0.145626
741,0.686732,-1.204391,0.369786,0.227138,0.933621,-0.277046,-1.337156,-0.15146,-0.26555,-0.154522,-0.442288,0.186546
742,0.724275,-1.229567,0.410913,0.221728,0.942344,-0.250636,-1.458064,-0.015653,-0.290069,-0.13367,-0.563819,0.154674
743,0.767243,-1.25495,0.457379,0.215612,0.950534,-0.223587,-1.408238,-0.110539,-0.314168,-0.152975,-0.547183,0.139923
744,0.810147,-1.277503,0.507801,0.209417,0.957297,-0.1993,-1.280542,-0.338224,-0.229663,-0.167883,-0.551017,0.142232
745,0.85707,-1.295332,0.564116,0.205598,0.962299,-0.178054,-1.118098,-0.328883,-0.04267,-0.157838,-0.497776,0.135345
746,0.914821,-1.305472,0.627437,0.207789,0.965007,-0.15993,-0.883475,-0.059224,0.250248,-0.100245,-0.346843,0.001926
747,0.974916,-1.307962,0.689247,0.215029,0.965658,-0.145813,-0.640609,0.023409,0.420617,-0.086504,-0.308614,-0.054398
748,1.025504,-1.306009,0.742395,0.22374,0.965148,-0.135731,-0.472654,-0.054114,0.480642,-0.072434,-0.218017,-0.071697
749,1.071153,-1.30035,0.789108,0.234491,0.963652,-0.127995,-0.348677,0.111166,0.598801,-0.059885,-0.09767,-0.07687
750,1.116941,-1.291976,0.82968,0.247348,0.961381,-0.120661,-0.272415,0.477296,0.613819,-0.075961,-0.073747,-0.0996
751,1.144253,-1.282814,0.850002,0.25856,0.958819,-0.117501,0.166624,0.207936,0.461271,-0.036102,0.229505,-0.097389
752,1.115705,-1.275067,0.823394,0.261765,0.95659,-0.128095,0.598941,-0.335427,0.104996,0.064209,1.129882,0.127194
753,1.057586,-1.269378,0.770369,0.258619,0.954916,-0.145753,0.985164,-0.227694,-0.264185,-0.006468,1.382486,0.434312
754,0.999685,-1.269671,0.705975,0.249516,0.955003,-0.160324,0.581827,0.423618,-0.554121,0.312786,0.177031,0.211608
755,0.981578,-1.272283,0.673404,0.244498,0.955775,-0.163428,0.258395,0.69515,-0.245875,0.486215,0.073705,0.01229
756,0.983465,-1.268786,0.664103,0.247586,0.954741,-0.164817,0.155481,0.372849,0.255883,0.455005,0.033632,0.030509
757,1.006982,-1.262342,0.688193,0.256588,0.952804,-0.162234,-0.294255,-0.164765,0.557874,0.255589,0.091691,-0.083463
758,1.036475,-1.25572,0.724727,0.266685,0.950773,-0.157807,-0.243386,-0.25331,0.545524,-0.095115,0.273074,-0.068923
759,1.054285,-1.250626,0.744949,0.27366,0.949182,-0.155422,-0.131747,0.078787,0.249981,-0.103647,0.296439,0.031902
760,1.0745,-1.251967,0.758367,0.275627,0.949603,-0.149253,-0.264739,0.56413,-0.061355,0.062386,0.23512,0.127097
761,1.102183,-1.257868,0.771019,0.274647,0.951436,-0.139033,-0.318231,0.846193,-0.222323,0.108425,-0.126729,0.104746
762,1.124969,-1.265272,0.779032,0.27138,0.953689,-0.129697,-0.255665,0.672693,-0.311394,0.159788,-0.162033,0.106703
763,1.144842,-1.27266,0.78828,0.267479,0.955886,-0.121364,-0.297433,0.474397,-0.236656,0.044213,-0.338561,0.100307
764,1.158913,-1.277729,0.795707,0.264717,0.957362,-0.115647,-0.107711,0.26997,-0.161362,0.046975,-0.340037,0.09459
765,1.150797,-1.279814,0.784036,0.261946,0.957962,-0.116978,0.230822,0.093072,-0.172657,-0.030119,-0.426011,-0.057034
766,1.122261,-1.281055,0.753633,0.257429,0.958318,-0.123888,0.431628,0.025736,-0.290809,-0.028684,-0.492162,-0.002928
767,1.078515,-1.282311,0.705345,0.250704,0.958676,-0.134458,0.684649,0.19572,-0.395014,-0.082064,-0.510251,-0.030306
768,1.020579,-1.279953,0.640398,0.244425,0.958002,-0.149931,0.967099,0.19025,-0.337486,-0.002573,-0.476404,0.02603
769,0.951837,-1.272681,0.566007,0.239217,0.955892,-0.170404,1.167997,0.102948,-0.257991,0.182139,-0.333882,0.195535
770,0.884166,-1.260686,0.496167,0.235998,0.9523,-0.193445,1.176375,-0.229099,-0.079114,0.243921,-0.275115,0.304529
771,0.82354,-1.243037,0.445671,0.236138,0.946766,-0.218778,1.231511,-0.864696,0.313053,-0.031365,0.033458,0.20297
772,0.769389,-1.215234,0.410748,0.242176,0.937451,-0.250057,1.473903,-1.114361,0.732741,-0.157672,0.32088,0.096172
773,0.727556,-1.180344,0.387161,0.253114,0.924737,-0.28423,1.620366,-0.869512,0.912912,-0.209596,0.452811,0.056035
774,0.69567,-1.145195,0.365211,0.264601,0.910791,-0.316921,1.577611,-0.383821,0.702619,0.074968,0.523902,-0.093236
775,0.670077,-1.119013,0.340546,0.271125,0.89967,-0.342166,1.164526,-0.165385,0.248664,0.185525,0.472156,-0.097333
776,0.643577,-1.103803,0.31753,0.270145,0.892926,-0.360136,0.777428,-0.358042,0.012266,0.159436,0.488818,-0.078646
777,0.625951,-1.094951,0.307313,0.268376,0.888906,-0.371233,0.311264,-0.45705,0.134119,0.098216,0.41009,-0.006773
778,0.623909,-1.093515,0.315841,0.268363,0.888247,-0.372816,-0.28451,-0.468115,0.220771,-0.014396,0.356596,0.064741
779,0.639937,-1.101142,0.342288,0.27025,0.891725,-0.363021,-0.874996,-0.298977,0.260226,-0.095186,-0.095476,0.02304
780,0.667304,-1.115689,0.376192,0.272025,0.898214,-0.345264,-1.079174,-0.066486,0.105747,-0.062751,-0.222509,-0.012432
781,0.698908,-1.131137,0.409286,0.273838,0.904897,-0.325833,-1.021332,0.170014,0.053505,-0.079624,-0.372533,0.041028
782,0.73101,-1.146195,0.4404,0.275025,0.911203,-0.306695,-0.998419,0.180997,-0.048899,-0.116548,-0.478845,0.072183
783,0.761858,-1.163158,0.470976,0.273644,0.91806,-0.28684,-1.078161,0.132714,-0.159421,-0.137184,-0.527145,0.077963
784,0.794233,-1.183251,0.502889,0.26957,0.925839,-0.264849,-1.177406,0.193405,-0.332175,-0.127648,-0.457196,0.016085
785,0.82626,-1.204436,0.533259,0.263427,0.933637,-0.242733,-1.085468,0.183701,-0.382795,-0.103957,0.012484,-0.031574
786,0.859053,-1.222562,0.564744,0.258384,0.939977,-0.222873,-0.994509,0.140238,-0.248577,-0.092521,0.190669,-0.029263
787,0.898871,-1.236725,0.604297,0.256605,0.944715,-0.204102,-0.924964,0.16044,-0.033404,-0.082518,0.008639,-0.024277
788,0.943911,-1.244975,0.646077,0.259214,0.947388,-0.187763,-0.675548,0.305782,0.166841,-0.069486,0.153183,-0.042874
789,0.964797,-1.241792,0.665626,0.265556,0.946364,-0.184025,0.202279,-0.021914,0.368877,-0.022575,0.278123,-0.008846
790,0.953064,-1.229988,0.655844,0.272467,0.942485,-0.193586,0.569541,-0.187311,0.38661,0.015527,0.503118,0.211545
791,0.932171,-1.220736,0.640109,0.275353,0.939352,-0.204425,0.312017,-0.347098,0.076299,0.067832,0.618479,0.439075
792,0.925822,-1.224409,0.641769,0.271291,0.940605,-0.204093,-0.332433,-0.378964,-0.186671,0.134639,0.453438,0.297264
793,0.930916,-1.229398,0.651368,0.268558,0.942288,-0.199904,-0.170608,-0.059518,-0.026785,0.301327,0.245716,0.09207
794,0.940975,-1.226818,0.659369,0.272519,0.941421,-0.198623,0.015776,0.201616,0.308536,0.201159,0.022584,0.030273
795,0.9589,-1.220553,0.674339,0.280858,0.939289,-0.197091,-0.086395,0.148192,0.437146,-0.061558,-0.117512,-0.022346
796,0.977084,-1.214637,0.691509,0.288997,0.937243,-0.195057,0.000145,0.088584,0.350232,-0.10757,0.236524,0.002369
797,0.9855,-1.212277,0.69672,0.292471,0.936418,-0.193839,-0.087242,0.251091,0.013992,0.173884,0.615264,0.092216
798,1.001772,-1.217222,0.703658,0.291682,0.938141,-0.186558,-0.272527,0.608329,-0.184313,0.277593,0.133529,0.081028
799,1.020684,-1.22363,0.709427,0.290027,0.94034,-0.177862,-0.260389,0.648964,-0.233418,0.28114,-0.09656,0.100958
800,1.043188,-1.230781,0.724146,0.288137,0.942749,-0.1679,-0.48553,0.254185,-0.147959,0.155802,-0.28833,0.142861
801,1.069654,-1.239645,0.750341,0.285138,0.945669,-0.156195,-0.628381,0.005554,-0.184958,-0.000532,-0.314657,0.111227
802,1.090418,-1.249176,0.775447,0.280314,0.948725,-0.146069,-0.508588,-0.239576,-0.259651,-0.0926,-0.176203,0.071698
803,1.095659,-1.257353,0.787301,0.274167,0.951278,-0.141044,-0.249494,-0.296851,-0.2802,-0.072644,-0.054656,0.120674
804,1.084721,-1.263016,0.779589,0.267842,0.953008,-0.141516,0.111257,-0.077398,-0.328168,-0.071186,-0.12647,0.115958
805,1.059876,-1.266693,0.749768,0.261184,0.954116,-0.146412,0.417431,0.319177,-0.400245,-0.059753,-0.312713,0.07468
806,1.024245,-1.267897,0.703011,0.254821,0.954476,-0.155026,0.632705,0.504845,-0.397911,-0.008804,-0.434334,0.026455
807,0.983753,-1.266307,0.650457,0.2496,0.954,-0.166054,0.746159,0.431676,-0.313703,0.052006,-0.401403,0.07148
808,0.941808,-1.260842,0.600888,0.24663,0.952348,-0.17944,0.771956,0.175212,-0.136938,0.190229,-0.349747,0.094891
809,0.904063,-1.252236,0.559388,0.246115,0.949687,-0.193681,0.765476,0.056441,-9.90E-05,0.26484,-0.275615,-0.075103
810,0.869867,-1.243363,0.524306,0.245781,0.946871,-0.207409,0.664371,-0.151894,-0.027243,0.35215,-0.156588,-0.0732
811,0.834636,-1.236719,0.495614,0.24298,0.944713,-0.220157,0.519671,-0.572037,-0.061899,0.275163,-0.188259,0.038776
812,0.793278,-1.230152,0.470998,0.238085,0.94254,-0.234362,0.546869,-1.106082,-0.000136,0.006559,-0.053151,0.182101
813,0.74299,-1.218693,0.44584,0.233296,0.93865,-0.253972,0.80938,-1.423965,0.146315,-0.119389,0.190669,0.217107
814,0.691836,-1.201848,0.421678,0.23006,0.932707,-0.277707,0.970116,-1.361188,0.291567,-0.118641,0.327059,0.094495
815,0.649256,-1.179868,0.400644,0.230372,0.924556,-0.303508,1.198715,-0.978815,0.374927,-0.077571,0.400685,0.004573
816,0.61209,-1.155448,0.37507,0.231842,0.914976,-0.330243,1.288743,-0.522748,0.264945,-0.019104,0.592867,-0.082049
817,0.585205,-1.135836,0.352271,0.23275,0.906887,-0.35125,0.902351,-0.237434,0.112329,0.094322,0.469486,-0.042992
818,0.568149,-1.121963,0.340558,0.233473,0.900954,-0.365739,0.608952,-0.339228,0.248211,0.163881,0.637071,0.020692
819,0.568081,-1.112878,0.348786,0.237843,0.896975,-0.372639,0.082949,-0.389306,0.440085,0.091824,0.459211,0.043187
820,0.578685,-1.112969,0.369998,0.241736,0.897015,-0.370028,-0.45118,-0.441221,0.299689,-0.110266,-0.091702,0.046587
821,0.584594,-1.123532,0.388876,0.238675,0.901634,-0.360671,-0.767123,-0.621792,-0.090051,-0.069654,-0.255104,0.067794
822,0.582113,-1.140572,0.40171,0.229299,0.908872,-0.348377,-0.904312,-0.725963,-0.293838,-0.054754,-0.302732,0.089969
823,0.578891,-1.160189,0.413745,0.218377,0.916879,-0.334122,-0.970082,-0.694634,-0.346678,-0.074472,-0.397073,0.166428
824,0.578889,-1.180352,0.427732,0.208218,0.92474,-0.31858,-1.014717,-0.600955,-0.291562,-0.09393,-0.436154,0.135154
825,0.58938,-1.20075,0.449262,0.20102,0.932311,-0.300632,-1.11336,-0.377287,-0.196398,-0.103242,-0.439025,0.093906
826,0.615263,-1.221322,0.480505,0.197619,0.939553,-0.279604,-1.161362,-0.048311,-0.106356,-0.075763,-0.176125,-0.070112
827,0.647706,-1.240142,0.513001,0.19588,0.94583,-0.258898,-1.002354,0.1569,-0.147169,-0.063556,-0.035781,-0.106062
828,0.677535,-1.255177,0.539787,0.194576,0.950604,-0.241832,-0.761138,0.254824,-0.069766,-0.05711,0.026294,-0.065892
829,0.715683,-1.26291,0.57273,0.198829,0.952976,-0.228681,-0.551882,0.392267,0.275487,-0.103705,0.026409,-0.02843
830,0.766544,-1.265247,0.615374,0.208652,0.953682,-0.216672,-0.502523,0.618341,0.440048,-0.130207,-0.067177,-0.022754
831,0.826177,-1.264491,0.660305,0.221724,0.953454,-0.20434,-0.430931,0.945932,0.506358,-0.120391,-0.086312,-0.019537
832,0.874092,-1.261029,0.693833,0.233786,0.952404,-0.195602,-0.087389,0.628672,0.426912,-0.000541,0.076175,0.06604
833,0.889069,-1.256042,0.700537,0.240374,0.950873,-0.195069,0.144784,0.274187,0.163,0.157804,0.505426,0.20543
834,0.880668,-1.25235,0.689641,0.241433,0.949723,-0.199316,0.253379,0.011539,-0.049549,0.166587,0.566512,0.276494
835,0.856413,-1.252252,0.669376,0.236598,0.949692,-0.205173,0.204474,-0.405003,-0.268342,0.162679,0.518737,0.262424
836,0.828553,-1.252979,0.649219,0.230282,0.94992,-0.211218,0.247918,-0.364041,-0.160201,0.413944,0.629472,0.039755
837,0.822509,-1.249865,0.644312,0.231168,0.948942,-0.214617,0.063854,0.103893,0.195768,0.525347,0.379885,-0.104704
838,0.838762,-1.247548,0.659016,0.23626,0.948209,-0.2123,-0.159446,0.039661,0.201768,0.276725,0.093875,-0.097499
839,0.861917,-1.248201,0.683712,0.240642,0.948416,-0.20637,-0.421292,-0.000157,0.263015,0.139958,0.011286,0.018687
840,0.897087,-1.250632,0.720514,0.245947,0.949184,-0.196342,-0.573744,-0.001648,0.235247,0.156092,0.206578,0.085395
841,0.938,-1.256717,0.763276,0.249109,0.951081,-0.182698,-0.824814,0.044425,0.120202,0.152441,0.211776,0.168798
842,0.986415,-1.26759,0.812811,0.249019,0.954384,-0.164713,-0.936894,0.044654,-0.105976,0.104573,0.01757,0.164774
843,1.024161,-1.280541,0.853159,0.244476,0.958171,-0.14876,-0.791643,-0.107436,-0.292773,0.124084,-0.035991,0.185747
844,1.050272,-1.293869,0.883968,0.237175,0.9619,-0.135962,-0.652864,-0.174687,-0.378244,0.075295,-0.131959,0.133643
845,1.061392,-1.305333,0.898013,0.229028,0.964971,-0.12793,-0.306693,-0.1086,-0.421844,0.013647,-0.240545,0.02089
846,1.046004,-1.313662,0.885734,0.220068,0.967123,-0.127407,0.065273,-0.224818,-0.452212,-0.002905,-0.313192,-0.065586
847,1.010954,-1.319714,0.854919,0.210504,0.968644,-0.131929,0.212342,-0.266852,-0.45754,0.015707,-0.411866,-0.048201
848,0.968544,-1.324094,0.8166,0.201222,0.969723,-0.13833,0.308263,-0.259846,-0.428037,0.078731,-0.497235,-0.009925
849,0.923112,-1.326425,0.775286,0.192928,0.97029,-0.145961,0.343077,-0.283661,-0.36367,0.116368,-0.578871,0.030208
850,0.87865,-1.327478,0.737282,0.185463,0.970544,-0.153739,0.314313,-0.448931,-0.300634,0.133904,-0.62095,-0.029183
851,0.835086,-1.327488,0.703373,0.178585,0.970546,-0.161665,0.307202,-0.562006,-0.255673,0.182713,-0.542751,-0.00046
852,0.794973,-1.327598,0.673852,0.171882,0.970573,-0.168622,0.193942,-0.586167,-0.242546,0.200539,-0.493903,0.021939
853,0.764504,-1.329436,0.656253,0.16543,0.971014,-0.172492,0.034045,-0.736044,-0.185787,0.159552,-0.386022,0.09986
854,0.739126,-1.331634,0.648419,0.159562,0.971537,-0.175057,-0.036749,-1.004461,-0.132527,0.11563,-0.258417,0.196953
855,0.703404,-1.33301,0.637399,0.152344,0.971862,-0.179625,0.107546,-1.415116,-0.12672,0.087967,-0.080916,0.17903
856,0.650481,-1.328636,0.618352,0.145202,0.970822,-0.190814,0.452539,-1.875055,0.041854,-0.024963,0.600223,0.173876
857,0.600536,-1.31402,0.608072,0.143499,0.967214,-0.209511,0.803274,-1.956934,0.499471,0.034006,0.717997,0.178749
858,0.568763,-1.289858,0.606395,0.149318,0.960796,-0.233592,1.126897,-1.191914,0.713328,0.046376,0.734547,-0.012914
859,0.549236,-1.262374,0.601184,0.158458,0.952814,-0.258895,1.204115,-0.502498,0.60082,0.17458,0.715704,-0.176011
860,0.538397,-1.239984,0.596912,0.166543,0.945779,-0.278848,0.823478,-0.328126,0.481502,0.283393,0.718299,-0.056556
861,0.534382,-1.227409,0.603737,0.171466,0.94162,-0.289728,0.290107,-0.635912,0.391645,0.308072,0.519303,-0.078803
862,0.537113,-1.223804,0.621317,0.173992,0.9404,-0.292173,-0.17296,-0.71179,0.321209,0.202518,0.344527,-0.057803
863,0.548694,-1.228042,0.649912,0.175284,0.941833,-0.286735,-0.574464,-0.801958,0.307838,0.136071,0.281297,-0.025215
864,0.572765,-1.236744,0.694448,0.177686,0.944721,-0.275535,-0.854946,-0.942951,0.378699,-0.020566,-0.154804,0.084266
865,0.594893,-1.249834,0.739928,0.176793,0.948932,-0.26127,-0.983734,-1.104565,0.14727,-0.113316,-0.341068,0.150903
866,0.605022,-1.26655,0.77557,0.170382,0.954073,-0.246383,-1.000099,-1.207857,-0.114426,-0.124743,-0.418566,0.157256
867,0.608217,-1.285452,0.802729,0.160833,0.959565,-0.230993,-1.017033,-1.077282,-0.252512,-0.066701,-0.599076,0.13239
868,0.617422,-1.305945,0.831452,0.151533,0.965131,-0.21342,-1.079798,-0.82131,-0.274643,-0.08557,-0.592451,0.11616
869,0.636613,-1.325843,0.864399,0.144153,0.970149,-0.194988,-1.023262,-0.529847,-0.218006,-0.097568,-0.567728,0.127651
870,0.670237,-1.34448,0.906909,0.139368,0.9745,-0.175828,-1.0686,-0.315948,-0.123525,-0.09318,-0.572141,0.109437
871,0.722315,-1.363072,0.966697,0.136327,0.978503,-0.154711,-1.158312,-0.319964,-0.107055,-0.041158,-0.372256,0.070055
872,0.782763,-1.38234,1.036505,0.1321,0.982295,-0.132798,-1.153266,-0.462413,-0.185886,-0.080494,-0.078593,-0.046356
873,0.833153,-1.399528,1.098451,0.126104,0.985369,-0.1146,-0.866198,-0.529125,-0.268184,-0.134344,0.074323,-0.109643
874,0.856909,-1.41054,1.129525,0.120579,0.987186,-0.104459,-0.328124,-0.160487,-0.214693,-0.050984,0.192898,-0.225512
875,0.850876,-1.41232,1.11981,0.118626,0.987469,-0.104026,0.148087,0.334637,-0.037881,0.118465,-0.024807,-0.287697
876,0.843772,-1.405626,1.101734,0.122821,0.98639,-0.109258,0.422314,0.65308,0.275548,0.140408,-0.069597,-0.305048
877,0.837901,-1.391835,1.083825,0.13228,0.984029,-0.119071,0.772107,0.332589,0.46534,0.128646,0.222422,-0.097177
878,0.76144,-1.366177,1.010525,0.14018,0.979138,-0.147063,1.695792,-0.524613,0.377819,0.232028,0.816165,0.07936
879,0.664587,-1.338382,0.929446,0.142038,0.973113,-0.18129,1.512299,-1.008735,0.126126,0.366034,1.195496,0.316941
880,0.586565,-1.328722,0.863018,0.132673,0.970843,-0.199631,0.607443,-0.492732,-0.522857,0.170107,0.319334,0.135849
881,0.520795,-1.319909,0.799163,0.123519,0.968693,-0.215332,0.83904,0.027381,-0.255919,0.453721,0.282574,0.261216
882,0.517692,-1.310092,0.791255,0.12755,0.966209,-0.223969,0.122368,0.208584,0.338115,0.564741,0.409066,0.170517
883,0.556404,-1.313076,0.83381,0.134599,0.966974,-0.216414,-0.567184,-0.330221,0.346808,0.320098,0.302802,-0.116411
884,0.575751,-1.316531,0.864345,0.136941,0.967848,-0.210966,-0.223812,-0.548007,0.16682,0.143653,0.30179,0.084623
885,0.581625,-1.322053,0.879406,0.135239,0.969223,-0.205689,-0.481018,-0.324597,-0.068136,0.148162,0.133698,0.231675
886,0.611795,-1.337486,0.911064,0.132774,0.972906,-0.189246,-1.081671,0.121836,-0.100677,0.193215,0.053445,0.22454
887,0.682296,-1.360023,0.979565,0.131912,0.977869,-0.16236,-1.470985,0.155108,-0.091689,0.225953,-0.110758,0.135016
888,0.766978,-1.386337,1.067524,0.127263,0.983036,-0.13204,-1.579452,-0.232417,-0.322686,0.142405,-0.245243,0.132193
889,0.858392,-1.414064,1.168623,0.118102,0.987743,-0.102007,-1.559709,-0.485475,-0.458956,0.024094,-0.330058,0.165682
890,0.966762,-1.440584,1.288305,0.106834,0.991534,-0.073723,-1.440856,-0.489749,-0.558533,-0.060813,-0.336108,0.136269
891,1.096684,-1.465378,1.426933,0.093569,0.994449,-0.048015,-1.265534,-0.315087,-0.699606,-0.070314,-0.285891,0.104152
892,1.263796,-1.488236,1.598111,0.078543,0.996594,-0.0249,-1.114788,-0.070347,-0.761892,-0.034583,-0.300259,0.065672
893,1.484238,-1.50675,1.81734,0.063674,0.99795,-0.005525,-0.877019,0.168374,-0.726354,-0.015593,-0.353693,0.009935
894,1.786726,-1.52013,2.115522,0.049363,0.998717,0.010828,-0.778408,0.273479,-0.722595,-0.012269,-0.329756,-0.043649
895,2.201821,-1.528103,2.523989,0.034355,0.999089,0.025103,-0.633538,0.423327,-0.759163,0.100151,-0.201283,0.030165
896,2.62645,-1.529555,2.938753,0.020245,0.99915,0.03576,-0.482163,0.533035,-0.620445,0.298923,-0.088002,-0.027734
897,2.929122,-1.524735,-3.050074,0.009683,0.998939,0.044887,-0.429469,0.327607,-0.442489,0.495367,0.048378,-0.147899
898,3.093071,-1.517305,-2.888456,0.002588,0.99857,0.053292,-0.42933,0.013892,-0.311763,0.624869,0.192989,-0.207726
899,-3.082658,-1.508381,-2.777792,-0.003668,0.998053,0.06217,-0.419998,-0.287598,-0.315584,0.621359,0.34469,-0.107031
900,-3.044289,-1.501725,-2.72879,-0.006696,0.997616,0.068603,-0.260688,-0.680088,-0.070414,0.623976,0.41634,-0.000702
901,-3.116928,-1.4982,-2.782424,-0.001787,0.997366,0.072429,-0.117252,-1.148693,0.308271,0.591447,0.407007,0.174794
902,3.00083,-1.500101,-2.917183,0.009899,0.997502,0.069856,0.268159,-1.7849,0.566015,0.47469,0.39799,0.239226
903,2.734601,-1.505791,3.140515,0.025679,0.997888,0.059573,0.608307,-2.187092,0.683206,0.300554,0.339606,0.220319
904,2.354365,-1.513481,2.806148,0.040511,0.998358,0.040363,1.065785,-2.357574,0.562706,-0.173552,0.163202,0.113781
905,1.780609,-1.518623,2.275988,0.050903,0.998639,0.01084,1.548991,-2.064595,0.403336,-0.214691,0.176623,0.181101
906,1.160451,-1.508398,1.687155,0.057102,0.998054,-0.024842,1.733212,-1.319038,0.277617,-0.104251,0.230233,0.262314
907,0.800028,-1.484976,1.342676,0.061446,0.99632,-0.059674,1.664935,-0.626289,0.257025,0.276475,0.252109,0.183697
908,0.618495,-1.458895,1.173556,0.06472,0.993746,-0.090945,1.429961,-0.77,0.169042,0.512443,0.221373,0.12247
909,0.509102,-1.438437,1.086941,0.064305,0.991253,-0.115205,0.961111,-1.431715,0.087566,0.506907,0.193485,0.127992
910,0.447209,-1.424057,1.059788,0.063216,0.989253,-0.131805,0.614767,-1.909406,0.233174,0.241639,0.096028,0.113113
911,0.4207,-1.411895,1.075797,0.06461,0.987402,-0.144407,0.447155,-2.206846,0.435346,0.193172,-0.02442,0.12335
912,0.41644,-1.401004,1.119034,0.068342,0.98562,-0.154511,0.280157,-2.393397,0.611744,0.184176,-0.048166,0.169388
913,0.416893,-1.394728,1.171183,0.070915,0.98454,-0.160133,0.012861,-2.67733,0.453212,0.124474,-0.214871,0.129218
914,0.391911,-1.393659,1.203645,0.067295,0.984352,-0.162826,-0.085242,-2.918853,0.198599,0.147915,-0.319542,0.172516
915,0.346121,-1.393884,1.216725,0.059696,0.984392,-0.165528,-0.033515,-2.93873,0.063322,0.150784,-0.336702,0.211991
916,0.295003,-1.394349,1.225109,0.051027,0.984474,-0.167924,-0.063675,-2.977078,0.088798,0.103087,-0.347267,0.292085
917,0.256826,-1.396154,1.247164,0.044129,0.984789,-0.168031,-0.204043,-2.99729,0.203211,0.05313,-0.389208,0.326188
918,0.234947,-1.401394,1.284527,0.039241,0.985686,-0.163934,-0.40644,-2.866866,0.263587,0.019948,-0.403136,0.323038
919,0.230515,-1.409109,1.333211,0.036775,0.986957,-0.156698,-0.478366,-2.436464,0.318081,-0.011399,-0.297962,0.234563
920,0.24331,-1.416974,1.389309,0.036905,0.988193,-0.148675,-0.503168,-1.984843,0.353648,-0.052149,-0.233188,0.17553
921,0.275273,-1.425078,1.456618,0.039459,0.989402,-0.139706,-0.516292,-1.541803,0.393581,-0.050568,-0.227134,0.15675
922,0.320009,-1.432579,1.528025,0.043331,0.990463,-0.130751,-0.504974,-1.210339,0.343029,0.026646,-0.029495,-0.004488
923,0.354775,-1.44002,1.587336,0.045287,0.991461,-0.12225,-0.45305,-1.202456,0.191694,0.150117,0.076761,-0.117497
924,0.363757,-1.446079,1.622469,0.044244,0.992233,-0.116219,-0.294188,-1.36013,0.057342,0.223227,0.115082,-0.180748
925,0.346681,-1.446124,1.634632,0.042238,0.992238,-0.116916,0.15727,-1.508922,0.111961,0.409544,0.162837,-0.290356
926,0.335497,-1.437468,1.653331,0.043755,0.991125,-0.125488,0.441307,-1.446981,0.359557,0.447166,0.034922,-0.273849
927,0.368306,-1.426629,1.71345,0.051714,0.989626,-0.134002,0.265522,-1.274155,0.714893,0.441756,-0.01755,-0.232224
928,0.452162,-1.419919,1.825289,0.065656,0.98864,-0.135171,-0.127478,-1.448091,0.86299,0.395129,-0.195915,-0.044898
929,0.493271,-1.414191,1.902316,0.073837,0.987762,-0.137346,0.034884,-1.940677,0.563517,0.241898,0.194672,0.170366
930,0.510313,-1.409917,1.961212,0.078229,0.987087,-0.139752,-0.099488,-2.03459,0.455877,0.108524,0.624012,0.401882
931,0.511283,-1.411182,1.999968,0.077753,0.987289,-0.138586,-0.25146,-1.82155,0.0593,-0.020105,1.105042,0.351538
932,0.448143,-1.419335,1.972807,0.065363,0.988552,-0.135955,-0.276987,-1.730472,-0.582996,-0.114939,0.429036,0.239929
933,0.348284,-1.42984,1.900632,0.047936,0.990082,-0.132024,-0.211194,-1.227367,-0.713504,-0.024895,-0.388779,0.163609
934,0.234422,-1.431101,1.805682,0.032335,0.990258,-0.135399,0.324099,-0.89219,-0.548893,0.148634,-0.473108,0.166894
935,0.173957,-1.426481,1.761957,0.024886,0.989605,-0.141612,0.172615,-0.897799,-0.080995,0.364396,-0.33015,0.225947
936,0.184463,-1.429732,1.792832,0.025782,0.990067,-0.138179,-0.418953,-1.066806,0.338105,0.524786,0.074371,0.143566
937,0.25516,-1.441418,1.889352,0.032555,0.991642,-0.124805,-0.906581,-1.3111,0.580703,0.561012,0.281933,0.074252
938,0.379145,-1.458756,2.042365,0.041366,0.99373,-0.103825,-1.187851,-1.44972,0.591735,0.346146,0.087416,0.047108
939,0.547138,-1.475886,2.242027,0.049276,0.995499,-0.08089,-1.216724,-1.557902,0.497668,0.164072,-0.040223,0.061832
940,0.735609,-1.490116,2.462844,0.054042,0.996747,-0.05971,-1.108959,-1.570048,0.245268,0.069341,-0.077176,0.097918
941,0.963428,-1.501325,2.722116,0.056944,0.997588,-0.039576,-1.091582,-1.508296,0.238901,0.026644,-0.113921,0.129328
942,1.266106,-1.506074,3.054699,0.061625,0.997906,-0.01938,-1.109493,-1.423152,0.273918,-0.010768,-0.199322,0.12964
943,1.590601,-1.506223,-2.876156,0.064438,0.997916,0.001276,-1.12513,-1.314657,0.062162,0.026947,-0.160361,0.100424
944,1.899012,-1.503925,-2.541457,0.063185,0.997765,0.021516,-1.058853,-1.258647,-0.148955,0.102251,-0.071373,0.018843
945,2.145008,-1.499931,-2.270505,0.05939,0.99749,0.038421,-0.823333,-1.189782,-0.258493,0.164701,-0.106285,-0.024276
946,2.312017,-1.496136,-2.07995,0.05497,0.997214,0.050316,-0.582944,-1.127715,-0.27078,0.180213,-0.212546,-0.015648
947,2.433782,-1.492038,-1.936376,0.051111,0.9969,0.059728,-0.514334,-1.026865,-0.242657,0.100928,-0.256132,-0.00858
948,2.541555,-1.486486,-1.809614,0.047517,0.996448,0.069449,-0.551998,-0.866919,-0.248466,0.10202,-0.216205,-0.020865
949,2.645807,-1.479609,-1.690201,0.043292,0.995845,0.080045,-0.56797,-0.647317,-0.273428,0.101163,-0.064128,-0.121183
950,2.738296,-1.471779,-1.587132,0.038775,0.995102,0.090875,-0.549989,-0.430123,-0.258625,0.115217,-0.025238,-0.167001
951,2.81243,-1.465796,-1.507175,0.033862,0.994493,0.099132,-0.337394,-0.166526,-0.294866,0.210904,0.05136,-0.13969
952,2.882126,-1.462607,-1.436272,0.027691,0.994153,0.104316,-0.266233,-0.008018,-0.30205,0.440952,-0.027967,-0.102836
953,2.931405,-1.45614,-1.383341,0.02386,0.993434,0.111841,-0.457067,-0.301972,-0.152387,0.455144,-0.027171,-0.133539
954,2.95378,-1.44616,-1.351003,0.023202,0.992243,0.122084,-0.553566,-0.559779,-0.066204,0.376975,0.020849,-0.163847
955,2.964087,-1.435541,-1.328961,0.023803,0.990867,0.132684,-0.524948,-0.571717,-0.036079,0.31595,0.071099,-0.163491
956,2.963992,-1.427908,-1.318112,0.025151,0.989809,0.140124,-0.255204,-0.552655,0.024533,0.354854,0.135588,-0.156832
957,2.930317,-1.427215,-1.341343,0.029999,0.98971,0.139869,0.147183,-0.513473,0.266575,0.296707,0.188726,-0.150566
958,2.84671,-1.435082,-1.414288,0.039309,0.990805,0.129418,0.729458,-0.617463,0.458783,0.247007,0.163828,0.199653
959,2.685833,-1.449305,-1.557645,0.053323,0.992629,0.108783,1.115162,-1.21097,0.694042,0.22335,0.180162,0.247602
960,2.408989,-1.459757,-1.803888,0.07408,0.993841,0.082346,1.285072,-1.790187,1.005755,0.170778,0.160287,0.227774
961,2.061824,-1.459594,-2.114824,0.097823,0.993823,0.052307,1.351565,-1.916259,1.040564,0.003434,0.238049,0.159683
962,1.764075,-1.450898,-2.378517,0.117345,0.992821,0.022967,1.23198,-1.658321,0.842846,0.025416,0.283821,0.130216
963,1.546661,-1.437037,-2.568084,0.133288,0.991068,-0.003218,1.087325,-1.401832,0.762458,0.092618,0.285635,0.096754
964,1.381436,-1.420285,-2.704812,0.147235,0.988695,-0.028218,1.024915,-1.576093,0.70563,0.141339,0.348967,0.083669
965,1.255789,-1.402353,-2.79955,0.159374,0.985847,-0.051933,0.908694,-1.579871,0.685595,0.079533,0.270211,0.071297
966,1.164351,-1.382227,-2.861992,0.172161,0.982273,-0.0741,0.842736,-1.423506,0.800302,0.120182,0.182491,0.036411
967,1.105428,-1.363487,-2.887568,0.183921,0.978588,-0.092356,0.502853,-1.939472,0.655447,0.041299,0.099186,0.019312
968,1.045341,-1.349854,-2.906047,0.18957,0.975691,-0.109918,0.502858,-2.151668,0.441006,0.052389,0.159685,0.032174
969,0.988416,-1.338785,-2.918492,0.192018,0.973206,-0.126458,0.338187,-2.275564,0.398354,0.059294,0.071792,0.125146
970,0.954293,-1.328416,-2.908677,0.195815,0.97077,-0.138763,0.10663,-2.107159,0.575982,0.031907,-0.051534,0.111694
971,0.947652,-1.317826,-2.87469,0.203226,0.968173,-0.146052,-0.105335,-1.918317,0.687491,-0.036372,-0.26633,0.044398
972,0.945861,-1.309685,-2.838641,0.20935,0.966104,-0.151023,-0.127474,-1.788669,0.519459,-0.076416,-0.437509,0.019141
973,0.93037,-1.305614,-2.81848,0.210138,0.965045,-0.156596,-0.075658,-1.731124,0.203554,-0.104211,-0.44768,0.062175
974,0.907808,-1.305369,-2.805956,0.206738,0.96498,-0.161443,-0.17753,-1.70906,0.102401,-0.137158,-0.467574,0.132177
975,0.900842,-1.306777,-2.780873,0.204542,0.965349,-0.162034,-0.391164,-1.446588,0.183894,-0.151869,-0.529161,0.127366
976,0.920454,-1.310507,-2.734773,0.204813,0.966316,-0.155811,-0.69073,-1.104869,0.235843,-0.190958,-0.59809,0.139148
977,0.965891,-1.316177,-2.669415,0.207168,0.967759,-0.143228,-0.928417,-0.781404,0.270088,-0.172241,-0.63701,0.083215
978,1.031633,-1.322866,-2.587675,0.21057,0.969422,-0.125983,-1.079174,-0.621068,0.264557,-0.151259,-0.659013,0.046332
979,1.106315,-1.328365,-2.499017,0.214613,0.970757,-0.10753,-1.050095,-0.540289,0.284953,-0.097486,-0.697091,-0.032515
980,1.175513,-1.331104,-2.416926,0.219079,0.971411,-0.091409,-0.87079,-0.52812,0.282985,-0.086388,-0.596854,-0.09104
981,1.22894,-1.331055,-2.350671,0.223692,0.971399,-0.079596,-0.642645,-0.560892,0.288893,-0.057646,-0.341456,-0.108179
982,1.26469,-1.328424,-2.302433,0.228831,0.970771,-0.07232,-0.433578,-0.531949,0.328772,0.010793,0.0485,-0.086906
983,1.296983,-1.323175,-2.260216,0.235949,0.969498,-0.066271,-0.436577,-0.359877,0.456718,0.096753,0.292999,-0.032866
984,1.343307,-1.314923,-2.208518,0.246551,0.967443,-0.057076,-0.588535,-0.095678,0.585641,0.062653,0.12585,-0.091911
985,1.400584,-1.306184,-2.150352,0.257737,0.965194,-0.044299,-0.66526,0.135859,0.559171,0.009155,-0.022659,-0.093503
986,1.456741,-1.298586,-2.095586,0.267095,0.963179,-0.030596,-0.612452,0.108563,0.413228,-0.078955,0.13997,0.012561
987,1.468519,-1.295181,-2.078412,0.270698,0.962258,-0.027783,0.151491,-0.52311,0.009177,-0.104149,0.531639,0.053326
988,1.420972,-1.295902,-2.111356,0.268385,0.962454,-0.040514,0.363677,-0.791331,-0.231484,0.014955,0.842676,0.283892
989,1.36897,-1.30553,-2.146846,0.256826,0.965023,-0.05255,0.567234,-1.085179,-0.715727,-0.024679,1.172078,0.433577
990,1.279926,-1.319223,-2.216351,0.238452,0.968522,-0.071383,0.615166,-0.826749,-0.91548,0.201245,1.002028,0.401873
991,1.240293,-1.329653,-2.252213,0.225868,0.971066,-0.077492,0.085628,0.100806,-0.381984,0.348961,0.173939,0.063119
992,1.248677,-1.328957,-2.254294,0.22715,0.970899,-0.07581,-0.000244,0.631141,0.267284,0.16288,0.006457,-0.182918
993,1.28069,-1.317057,-2.230724,0.240515,0.96798,-0.071801,-0.11387,0.341731,0.811654,-0.006811,-0.002557,-0.292854
994,1.297836,-1.300846,-2.218683,0.25679,0.963784,-0.071888,0.207069,0.24283,0.757407,-0.140273,-0.05407,-0.227673
995,1.297685,-1.292024,-2.22115,0.264957,0.961394,-0.074217,0.044517,0.055035,0.176468,-0.078815,-0.047347,0.033507
996,1.318616,-1.296133,-2.202944,0.262624,0.962516,-0.067669,-0.503897,0.312286,-0.276346,0.057215,-0.0261,0.06091
997,1.373927,-1.306505,-2.156843,0.256157,0.965278,-0.051091,-0.767388,0.686483,-0.385488,0.143348,-0.128959,-0.042537
998,1.439797,-1.314966,-2.105568,0.250857,0.967454,-0.033051,-0.692933,0.797427,-0.222741,0.17442,-0.125153,-0.096877
999,1.495688,-1.316837,-2.059126,0.250505,0.967925,-0.018851,-0.509434,0.376954,0.072841,0.237471,-0.279266,-0.139368
1000,1.529441,-1.313172,-2.024832,0.254541,0.966998,-0.010533,-0.407204,-0.185577,0.266556,0.096792,-0.431186,-0.080959
1001,1.553683,-1.307493,-1.990797,0.26021,0.965536,-0.004453,-0.421488,-0.492418,0.289282,-0.025774,-0.493062,-0.057879
1002,1.563916,-1.304118,-1.975024,0.2635,0.964652,-0.001813,-0.027059,-0.053022,0.088512,-0.251903,-0.596137,-0.136584
1003,1.548587,-1.304459,-1.995765,0.263112,0.964741,-0.005844,0.425794,0.363661,-0.077638,-0.105412,-0.447423,-0.101226
1004,1.511932,-1.306926,-2.042224,0.260345,0.965388,-0.015343,0.684463,0.35895,-0.189057,0.12909,-0.226435,0.029518
1005,1.457781,-1.310576,-2.100739,0.255629,0.966333,-0.029014,0.766308,-0.026643,-0.269176,0.195146,-0.147119,0.089118
1006,1.389681,-1.311437,-2.167599,0.252244,0.966555,-0.046192,0.901102,-0.236645,-0.084231,0.024809,-0.169054,0.110355
1007,1.308427,-1.305689,-2.243837,0.253026,0.965064,-0.067953,1.130339,-0.503664,0.158062,-0.140874,-0.021858,0.100866
1008,1.214486,-1.289496,-2.323387,0.26015,0.960695,-0.096827,1.356122,-1.069882,0.633587,-0.196109,0.251646,0.038233
1009,1.119877,-1.261839,-2.401108,0.273658,0.952651,-0.132502,1.684327,-0.897371,0.897373,-0.010551,0.413712,-0.100896
1010,1.044128,-1.229891,-2.466859,0.28902,0.942452,-0.168051,1.641465,-0.509279,0.851711,0.064862,0.461356,-0.160212
1011,0.981699,-1.206465,-2.527463,0.296252,0.934362,-0.19797,1.422997,-0.206352,0.145839,0.247495,0.716623,-0.391278
1012,0.929471,-1.192272,-2.580665,0.296112,0.929211,-0.221079,1.06203,-0.095183,0.097241,0.300644,0.859043,-0.252234
1013,0.904199,-1.175911,-2.603207,0.30234,0.923041,-0.237861,0.677007,-0.311976,0.565916,0.067289,0.704691,-0.171807
1014,0.905525,-1.161689,-2.593075,0.312953,0.917476,-0.245539,0.022955,-0.421044,0.702492,-0.079646,0.386769,-0.035223
1015,0.93236,-1.156139,-2.555689,0.323512,0.915255,-0.240083,-0.685827,-0.325652,0.638667,-0.15771,-0.137072,-0.06378
1016,0.975388,-1.159139,-2.503989,0.331265,0.916459,-0.224405,-1.016651,-0.149734,0.356257,-0.198789,-0.29477,-0.088477
1017,1.017407,-1.168434,-2.456306,0.333137,0.920138,-0.205805,-1.05958,-0.08743,-0.001978,-0.159507,-0.537418,-0.075323
1018,1.055469,-1.182342,-2.411893,0.329558,0.925496,-0.186653,-1.098378,-0.168389,-0.235017,-0.192992,-0.560872,-0.025719
1019,1.094042,-1.197619,-2.367253,0.32391,0.931174,-0.167297,-1.066974,-0.094874,-0.264802,-0.202816,-0.624228,-0.017929
1020,1.133745,-1.211203,-2.324757,0.318804,0.93604,-0.14894,-0.942274,0.064683,-0.314342,-0.245165,-0.731252,-0.001924
1021,1.177856,-1.225724,-2.28099,0.312471,0.941051,-0.129518,-1.039553,0.170841,-0.40382,-0.242601,-0.531215,-0.005095
1022,1.231119,-1.241769,-2.226515,0.304645,0.946357,-0.107654,-1.149063,0.017823,-0.404389,-0.217518,-0.399421,-0.053769
1023,1.283571,-1.253813,-2.169607,0.298917,0.95018,-0.088298,-0.967996,-0.111349,-0.226702,-0.101651,0.127792,-0.103917
1024,1.337141,-1.260326,-2.111095,0.297188,0.95219,-0.070731,-0.962361,-0.036722,0.020001,-0.111748,0.072789,-0.07998
1025,1.393983,-1.261428,-2.055894,0.299693,0.952526,-0.053549,-0.725525,0.352784,0.177117,-0.134745,0.018299,-0.195734
1026,1.436806,-1.257268,-2.022175,0.305636,0.951251,-0.041199,-0.310277,0.569055,0.345312,-0.110705,0.085477,-0.203399
1027,1.434421,-1.249201,-2.032555,0.31313,0.948732,-0.04297,0.573526,0.212203,0.374376,-0.113591,0.505842,-0.011336
1028,1.398314,-1.24257,-2.074448,0.317567,0.946615,-0.055324,0.626776,0.155591,0.100287,-0.04294,0.904001,0.215725
1029,1.375289,-1.242951,-2.102426,0.315855,0.946738,-0.062551,0.344687,0.186739,-0.251032,-0.099409,0.772256,0.303533
1030,1.352578,-1.249153,-2.130424,0.308614,0.948717,-0.068435,0.405688,0.282076,-0.43553,0.314372,0.567686,0.080367
1031,1.330605,-1.251018,-2.161971,0.305317,0.949305,-0.074778,0.498527,0.407078,-0.075051,0.566204,0.277074,-0.115911
